# Sensor type: Thingy
# Activity type: Descending stairs
# Activity subtype: Normal
# Subject id: s2094833
# Notes: 
timestamp,accel_x,accel_y,accel_z,gyro_x,gyro_y,gyro_z,mag_x,mag_y,mag_z
1696287116109,-1.0029297,-0.040039062,0.56640625,14.625,36.25,-22.78125,0.0,0.0,0.0
1696287116171,-1.2373047,0.33007812,0.9404297,96.0,46.75,-23.34375,0.0,0.0,0.0
1696287116201,-1.4638672,0.17089844,0.7470703,-157.59375,-25.59375,0.96875,0.0,0.0,0.0
1696287116231,-0.8359375,-0.4375,-0.15234375,-116.09375,-78.25,-29.8125,0.0,0.0,0.0
1696287116293,-1.875,-0.31933594,0.4404297,15.0625,47.84375,-17.65625,0.0,0.0,0.0
1696287116321,-1.2255859,-0.07324219,0.55566406,-100.0,-20.875,-50.5,-83.125,-18.5625,-165.9375
1696287116352,-0.9794922,-0.12890625,-0.6171875,-156.4375,8.53125,-14.65625,0.0,0.0,0.0
1696287116410,-1.0527344,-0.34960938,-0.15917969,130.71875,67.25,13.28125,0.0,0.0,0.0
1696287116443,-0.9140625,0.08691406,0.65527344,83.3125,38.625,8.28125,0.0,0.0,0.0
1696287116503,-0.73535156,-0.13183594,0.048828125,-16.0,16.9375,13.96875,0.0,0.0,0.0
1696287116530,-0.7421875,-0.21484375,0.5205078,79.6875,4.125,24.21875,0.0,0.0,0.0
1696287116561,-0.5439453,-0.19140625,0.30664062,-70.625,-16.4375,7.5,0.0,0.0,0.0
1696287116592,-0.5830078,-0.017578125,0.21289062,27.9375,-34.9375,7.125,0.0,0.0,0.0
1696287116653,-0.6894531,-0.018554688,0.111328125,26.28125,-54.9375,13.40625,0.0,0.0,0.0
1696287116683,-0.62890625,-0.10546875,0.0048828125,-28.34375,-33.78125,13.65625,0.0,0.0,0.0
1696287116712,-1.0400391,-0.5605469,0.66308594,-6.3125,-47.625,13.03125,0.0,0.0,0.0
1696287116777,-1.0595703,-0.2626953,0.5234375,-8.0625,-82.78125,-2.09375,0.0,0.0,0.0
1696287116801,-1.5820312,-0.044921875,0.6542969,102.84375,-193.875,13.28125,0.0,0.0,0.0
1696287116837,-1.5722656,0.33203125,0.46289062,103.8125,-206.625,40.03125,-73.9375,-19.0,-159.1875
1696287116981,-1.4853516,0.4609375,0.6376953,30.1875,-109.9375,31.90625,0.0,0.0,0.0
1696287116983,-1.015625,0.09863281,0.296875,-5.15625,-15.09375,-11.71875,0.0,0.0,0.0
1696287116983,-0.8173828,0.30371094,0.4951172,-62.625,33.5625,-20.875,0.0,0.0,0.0
1696287117009,-0.59472656,0.18261719,0.20019531,-91.09375,72.875,-12.15625,0.0,0.0,0.0
1696287117040,-0.47753906,0.18652344,0.10546875,-10.75,87.625,15.65625,0.0,0.0,0.0
1696287117070,-0.4794922,0.13867188,0.14453125,33.25,81.96875,19.34375,0.0,0.0,0.0
1696287117132,-0.71777344,-0.3720703,0.3876953,109.1875,87.5,34.40625,0.0,0.0,0.0
1696287117161,-0.7949219,-0.28027344,0.18261719,29.65625,83.34375,-38.96875,0.0,0.0,0.0
1696287117192,-0.6513672,0.22753906,0.7783203,-35.65625,122.71875,-57.875,0.0,0.0,0.0
1696287117256,-0.8720703,0.15625,0.45117188,-147.15625,63.21875,-42.0625,0.0,0.0,0.0
1696287117281,-0.6386719,0.07519531,0.4140625,-68.0,26.90625,-14.40625,0.0,0.0,0.0
1696287117310,-0.9199219,-0.060546875,0.40625,16.65625,2.65625,8.03125,-80.375,-22.9375,-169.25
1696287117403,-1.8681641,-0.0859375,-0.14257812,-79.59375,-3.1875,-12.40625,0.0,0.0,0.0
1696287117405,-1.0185547,0.32226562,0.115234375,-19.375,-24.5625,-15.8125,0.0,0.0,0.0
1696287117430,-1.8730469,-0.38476562,1.4736328,82.25,-50.4375,6.875,0.0,0.0,0.0
1696287117527,-1.3007812,-0.4580078,0.005859375,-172.8125,-14.40625,-37.5625,0.0,0.0,0.0
1696287117529,-1.1484375,-0.21582031,-0.0029296875,22.625,12.25,-3.875,0.0,0.0,0.0
1696287117549,-1.0810547,0.03125,0.22949219,101.78125,40.5,15.1875,0.0,0.0,0.0
1696287117614,-0.84765625,-0.091796875,0.38183594,-23.40625,35.3125,10.46875,0.0,0.0,0.0
1696287117640,-0.7207031,-0.33398438,0.36914062,-77.90625,17.6875,1.09375,0.0,0.0,0.0
1696287117670,-0.49023438,-0.07910156,0.19335938,31.96875,-6.78125,10.375,0.0,0.0,0.0
1696287117730,-0.5683594,-0.20019531,0.14941406,53.625,-3.0,20.4375,0.0,0.0,0.0
1696287117760,-0.6230469,-0.14746094,0.14355469,50.875,-10.75,20.1875,0.0,0.0,0.0
1696287117793,-0.7988281,-0.20703125,0.24023438,6.40625,-7.59375,15.0625,0.0,0.0,0.0
1696287118003,-0.7841797,-0.09082031,0.34277344,-52.25,-12.15625,-5.8125,-80.5625,-25.625,-171.5
1696287118009,-0.70214844,-0.109375,0.23339844,-31.6875,-26.3125,-11.125,0.0,0.0,0.0
1696287118010,-1.6552734,-0.24902344,0.83984375,12.5625,-114.28125,-17.78125,0.0,0.0,0.0
1696287118012,-1.9716797,-0.0390625,0.45117188,88.125,-195.15625,-6.0625,0.0,0.0,0.0
1696287118013,-1.4580078,0.40429688,0.50097656,90.5625,-246.21875,26.65625,0.0,0.0,0.0
1696287118029,-1.3417969,-0.43066406,0.58691406,14.09375,-111.53125,26.84375,0.0,0.0,0.0
1696287118090,-0.6347656,-0.02734375,0.37109375,37.71875,-36.625,-11.375,0.0,0.0,0.0
1696287118121,-0.51660156,0.22851562,0.46191406,50.15625,18.65625,1.625,0.0,0.0,0.0
1696287118150,-0.375,0.25390625,0.18652344,9.25,68.09375,10.46875,0.0,0.0,0.0
1696287118214,-0.5703125,0.0087890625,0.25195312,-24.0625,96.46875,0.84375,0.0,0.0,0.0
1696287118240,-0.45996094,-0.036132812,0.22363281,-28.875,127.90625,-23.6875,0.0,0.0,0.0
1696287118277,-0.5126953,-0.18261719,0.10058594,-0.125,115.78125,-22.0,0.0,0.0,0.0
1696287118334,-0.90234375,-0.09667969,0.1328125,75.5,120.15625,-22.40625,-77.25,-21.875,-164.4375
1696287118362,-0.73828125,-0.08300781,0.77734375,139.4375,146.40625,-27.90625,0.0,0.0,0.0
1696287118389,-0.8388672,0.04296875,0.7714844,-16.6875,68.59375,-24.25,0.0,0.0,0.0
1696287118482,-1.0927734,0.10644531,0.47753906,-27.71875,13.46875,-16.1875,0.0,0.0,0.0
1696287118484,-0.8984375,0.21289062,0.37109375,31.0,1.5,1.09375,0.0,0.0,0.0
1696287118510,-1.5273438,-0.12109375,1.2724609,-36.21875,2.125,0.09375,0.0,0.0,0.0
1696287118569,-1.1337891,0.115234375,-1.0302734,-405.84375,10.53125,-71.71875,0.0,0.0,0.0
1696287118633,-1.0839844,-0.18554688,-0.9501953,8.78125,-22.71875,10.0625,0.0,0.0,0.0
1696287118663,-1.6669922,-0.3388672,0.58203125,188.34375,67.0625,25.625,0.0,0.0,0.0
1696287118707,-1.3583984,-0.41308594,-0.123046875,-144.65625,11.75,-17.46875,0.0,0.0,0.0
1696287118719,-1.0244141,-0.041992188,-0.09277344,75.65625,36.0,1.21875,0.0,0.0,0.0
1696287118780,-1.0029297,0.022460938,0.24902344,123.75,52.0625,12.5,0.0,0.0,0.0
1696287118813,-0.7890625,-0.047851562,0.20507812,79.15625,42.03125,17.5,0.0,0.0,0.0
1696287118872,-0.7451172,-0.07324219,0.34375,53.8125,30.5625,20.4375,-84.125,-21.4375,-178.6875
1696287118881,-0.75878906,-0.09765625,0.34179688,23.0625,6.03125,23.375,0.0,0.0,0.0
1696287118931,-0.6875,-0.24804688,0.4326172,-8.5625,-12.03125,19.15625,0.0,0.0,0.0
1696287118961,-0.6425781,-0.024414062,0.42578125,21.21875,-21.6875,1.6875,0.0,0.0,0.0
1696287118992,-0.82910156,-0.3125,0.18261719,-30.65625,-46.34375,-4.34375,0.0,0.0,0.0
1696287119053,-0.6386719,-0.19921875,-0.044921875,23.65625,-49.28125,-13.6875,0.0,0.0,0.0
1696287119080,-0.76953125,-0.13085938,-0.07324219,152.625,-34.9375,4.75,0.0,0.0,0.0
1696287119111,-0.97558594,-0.20703125,0.63378906,47.40625,-15.34375,-2.59375,0.0,0.0,0.0
1696287119203,-1.5097656,-0.18359375,0.7626953,100.15625,-74.65625,-6.96875,0.0,0.0,0.0
1696287119231,-1.6884766,-0.12695312,0.5292969,188.46875,-168.84375,-3.0625,0.0,0.0,0.0
1696287119262,-1.3125,0.16992188,0.30859375,224.84375,-157.0,21.84375,0.0,0.0,0.0
1696287119321,-1.1152344,-0.018554688,0.2705078,94.40625,-59.84375,-31.6875,0.0,0.0,0.0
1696287119353,-1.2197266,0.08691406,0.28515625,9.375,6.03125,-60.8125,0.0,0.0,0.0
1696287119358,-0.9277344,0.13671875,0.21777344,-18.09375,47.46875,-80.15625,-82.375,-14.1875,-173.875
1696287119411,-0.6015625,0.14550781,-0.024414062,24.40625,111.875,-66.0625,0.0,0.0,0.0
1696287119468,-0.71875,-0.06933594,0.14648438,-13.375,151.0,-41.8125,0.0,0.0,0.0
1696287119499,-0.81347656,0.16992188,0.24707031,88.25,76.875,-18.625,0.0,0.0,0.0
1696287119529,-0.7285156,0.34960938,0.32226562,131.9375,22.75,-8.6875,0.0,0.0,0.0
1696287119560,-0.8203125,0.37304688,0.36914062,91.40625,7.6875,-1.25,0.0,0.0,0.0
1696287119590,-0.51464844,0.37890625,0.35058594,51.5625,-24.90625,11.9375,0.0,0.0,0.0
1696287119656,-0.7285156,-0.0107421875,0.36132812,21.71875,-29.5625,22.875,0.0,0.0,0.0
1696287119680,-0.82128906,-0.24511719,0.5214844,49.0,-21.8125,-1.46875,0.0,0.0,0.0
1696287119713,-0.84765625,-0.18457031,0.6738281,-98.90625,-0.375,-37.3125,0.0,0.0,0.0
1696287119773,-0.8203125,-0.022460938,0.60546875,-48.84375,12.5625,-26.25,0.0,0.0,0.0
1696287119801,-1.3007812,0.5292969,-1.4160156,-51.34375,-42.6875,12.5,0.0,0.0,0.0
1696287119862,-1.3085938,-0.10058594,0.28808594,27.34375,8.15625,8.15625,-88.1875,-20.375,-181.375
1696287119893,-1.4873047,-1.1484375,-0.23144531,-175.125,16.46875,-35.0,0.0,0.0,0.0
1696287119981,-1.3974609,0.021484375,-0.34179688,122.375,51.5,-44.21875,0.0,0.0,0.0
1696287120012,-1.5488281,0.0078125,0.14648438,211.21875,71.59375,-37.125,0.0,0.0,0.0
1696287120027,-1.0732422,0.16308594,0.017578125,109.1875,80.5625,-28.28125,0.0,0.0,0.0
1696287120040,-0.61328125,0.14453125,0.037109375,177.65625,98.5,-21.1875,0.0,0.0,0.0
1696287120070,-0.61035156,-0.0048828125,0.17480469,147.8125,94.28125,-8.0,0.0,0.0,0.0
1696287120160,-0.82714844,-0.171875,0.24414062,100.5625,79.5625,3.21875,0.0,0.0,0.0
1696287120190,-0.9326172,-0.22363281,0.3564453,-14.53125,83.34375,-5.75,0.0,0.0,0.0
1696287120191,-0.9091797,0.0,0.46972656,139.03125,44.28125,-1.65625,0.0,0.0,0.0
1696287120251,-1.1835938,-0.16601562,0.74316406,136.59375,-10.75,29.84375,0.0,0.0,0.0
1696287120280,-1.8066406,-0.4736328,-0.32226562,22.6875,-72.59375,21.34375,0.0,0.0,0.0
1696287120311,-1.3007812,0.044921875,0.015625,52.34375,-190.8125,20.125,0.0,0.0,0.0
1696287120373,-1.2763672,-0.13574219,-0.083984375,181.9375,-130.21875,19.21875,-89.125,-30.4375,-194.75
1696287120402,-1.6074219,-0.5214844,0.00390625,34.59375,-116.21875,24.875,0.0,0.0,0.0
1696287120462,-1.2275391,-0.31933594,-0.038085938,19.34375,-129.28125,-3.96875,0.0,0.0,0.0
1696287120492,-1.0644531,-0.1796875,-0.30371094,147.9375,-37.96875,-34.375,0.0,0.0,0.0
1696287120521,-0.74316406,-0.26464844,-0.06933594,122.59375,-85.21875,-58.65625,0.0,0.0,0.0
1696287120554,-0.4609375,0.21191406,-0.26660156,140.78125,-27.46875,-52.9375,0.0,0.0,0.0
1696287120766,-0.4453125,0.08886719,-0.046875,191.21875,4.3125,-50.78125,0.0,0.0,0.0
1696287120770,-0.4765625,0.22753906,0.2578125,153.78125,53.6875,-45.0,0.0,0.0,0.0
1696287120772,-1.2783203,-0.24804688,0.49414062,41.625,123.875,-73.5,0.0,0.0,0.0
1696287120774,-1.1416016,0.19628906,0.71484375,219.09375,17.5,-37.75,0.0,0.0,0.0
1696287120777,-0.7792969,0.7861328,0.07128906,-0.0625,-18.5625,-14.46875,0.0,0.0,0.0
1696287120789,-0.9658203,0.78808594,0.67285156,114.125,-23.625,5.0625,0.0,0.0,0.0
1696287120850,-1.9335938,-1.7578125,0.41015625,-67.09375,42.78125,-33.84375,-88.625,-35.0625,-177.5
1696287120881,-0.7626953,-0.07910156,-0.4033203,-17.28125,-56.71875,-22.21875,0.0,0.0,0.0
1696287120911,-1.0224609,-0.51171875,-0.41601562,127.78125,43.4375,4.25,0.0,0.0,0.0
1696287120974,-1.4179688,-0.041992188,0.2607422,123.6875,88.71875,-49.09375,0.0,0.0,0.0
1696287121000,-1.0439453,0.34179688,0.040039062,86.34375,29.53125,-47.375,0.0,0.0,0.0
1696287121152,-0.8535156,-0.13867188,0.25,59.8125,38.75,-43.65625,0.0,0.0,0.0
1696287121180,-0.69628906,-0.17480469,0.095703125,13.53125,36.0,-38.59375,0.0,0.0,0.0
1696287121210,-0.84472656,0.0107421875,0.20800781,61.1875,47.28125,-11.78125,0.0,0.0,0.0
1696287121250,-0.7841797,-0.17871094,0.48535156,-13.875,20.0625,-12.15625,0.0,0.0,0.0
1696287121253,-0.8105469,-0.0107421875,0.44433594,-7.875,-15.09375,-12.90625,0.0,0.0,0.0
1696287121255,-0.63378906,-0.28808594,0.14648438,-13.25,-17.84375,-17.46875,0.0,0.0,0.0
1696287121270,-0.68847656,0.16308594,-0.045898438,10.65625,-35.40625,8.28125,0.0,0.0,0.0
1696287121334,-0.6582031,-0.16894531,-0.016601562,94.09375,-15.03125,41.4375,0.0,0.0,0.0
1696287121360,-0.6953125,0.022460938,0.1953125,52.78125,-32.3125,34.46875,-90.625,-38.0625,-178.375
1696287121393,-1.0449219,-0.119140625,0.21191406,-39.5625,-32.90625,22.1875,0.0,0.0,0.0
1696287121457,-0.8769531,-0.27246094,0.3564453,19.09375,-31.21875,18.21875,0.0,0.0,0.0
1696287121514,-2.0,-0.4716797,1.015625,18.46875,-114.875,18.1875,0.0,0.0,0.0
1696287121541,-1.984375,0.5214844,0.31835938,81.53125,-161.5,4.1875,0.0,0.0,0.0
1696287121570,-1.3945312,0.6660156,0.20507812,-78.03125,-136.6875,17.3125,0.0,0.0,0.0
1696287121601,-1.4619141,-0.0087890625,0.37304688,-32.125,-99.375,12.25,0.0,0.0,0.0
1696287121662,-0.95996094,-0.107421875,0.115234375,6.5,-63.0,-0.375,0.0,0.0,0.0
1696287121691,-0.3955078,0.39746094,0.037109375,49.1875,-44.5625,13.65625,0.0,0.0,0.0
1696287121724,-0.12207031,0.32910156,0.2783203,22.09375,-8.125,26.71875,0.0,0.0,0.0
1696287121751,-0.38085938,0.001953125,0.21484375,-16.4375,64.5,-1.96875,0.0,0.0,0.0
1696287121847,-0.3779297,-0.14550781,0.0107421875,-24.0625,87.625,-18.4375,-84.4375,-34.0,-159.5
1696287121853,-0.51171875,-0.13964844,0.12207031,18.0,123.65625,-34.125,0.0,0.0,0.0
1696287121871,-0.9863281,-0.0390625,0.1953125,89.9375,145.0625,-74.46875,0.0,0.0,0.0
1696287121931,-0.99121094,0.7060547,1.1123047,135.25,80.1875,-55.875,0.0,0.0,0.0
1696287121961,-0.8232422,0.32714844,0.74902344,-176.71875,20.4375,-22.125,0.0,0.0,0.0
1696287121991,-0.7705078,0.09667969,0.28808594,-179.03125,-10.875,-8.125,0.0,0.0,0.0
1696287122143,-0.90234375,0.2421875,0.6044922,-35.84375,-6.3125,4.8125,0.0,0.0,0.0
1696287122174,-1.5419922,-0.31640625,-0.4873047,-95.28125,-42.6875,43.5625,0.0,0.0,0.0
1696287122178,-1.5136719,-0.33496094,0.3173828,134.875,-13.75,-2.15625,0.0,0.0,0.0
1696287122204,-1.7490234,-0.31054688,0.6621094,-58.5625,6.21875,-30.78125,0.0,0.0,0.0
1696287122210,-1.2675781,-0.09667969,-0.15625,-98.90625,21.90625,-42.0,0.0,0.0,0.0
1696287122228,-1.078125,-0.09277344,-0.033203125,50.09375,33.84375,-11.5625,0.0,0.0,0.0
1696287122293,-1.0195312,-0.19433594,0.17578125,96.34375,51.8125,10.71875,0.0,0.0,0.0
1696287122321,-0.9482422,-0.040039062,0.39941406,87.03125,46.8125,14.625,0.0,0.0,0.0
1696287122350,-0.6796875,-0.19921875,0.41992188,12.625,29.46875,15.5,-85.625,-40.9375,-177.625
1696287122414,-0.54785156,-0.15332031,0.19042969,20.5,-1.59375,13.03125,0.0,0.0,0.0
1696287122441,-0.50683594,0.23535156,0.42089844,124.9375,2.125,15.3125,0.0,0.0,0.0
1696287122472,-0.6376953,-0.095703125,0.18847656,-68.4375,-35.53125,17.6875,0.0,0.0,0.0
1696287122562,-0.54296875,-0.25683594,-0.1015625,-53.78125,-31.5,11.59375,0.0,0.0,0.0
1696287122589,-0.6621094,-0.34960938,0.21386719,117.0625,-20.875,21.34375,0.0,0.0,0.0
1696287122622,-0.93359375,-0.4169922,0.5878906,15.5,-36.28125,-1.46875,0.0,0.0,0.0
1696287122682,-2.0,0.19335938,0.6689453,-0.8125,-105.59375,-29.5,0.0,0.0,0.0
1696287122714,-1.6923828,0.5644531,0.484375,11.65625,-150.28125,-4.71875,0.0,0.0,0.0
1696287122720,-1.7207031,0.19238281,0.6484375,54.5,-136.5625,34.21875,0.0,0.0,0.0
1696287122775,-1.3701172,0.059570312,0.39746094,23.1875,-31.9375,5.90625,0.0,0.0,0.0
1696287122835,-0.6386719,-0.02734375,0.2734375,-19.125,11.75,-21.625,0.0,0.0,0.0
1696287122861,-0.5625,0.1328125,0.083984375,10.25,38.9375,8.71875,-77.125,-35.9375,-162.1875
1696287122892,-0.4453125,0.171875,0.07519531,9.8125,58.53125,11.8125,0.0,0.0,0.0
1696287122923,-0.31640625,0.13085938,-0.09472656,10.84375,101.25,-4.71875,0.0,0.0,0.0
1696287122955,-0.69433594,-0.055664062,0.078125,80.375,92.5625,-8.0625,0.0,0.0,0.0
1696287123014,-0.6816406,-0.36816406,0.2998047,58.40625,81.46875,-31.15625,0.0,0.0,0.0
1696287123039,-0.7392578,-0.034179688,0.19042969,25.8125,52.21875,-76.125,0.0,0.0,0.0
1696287123071,-0.8964844,0.33203125,1.5576172,54.3125,125.15625,-55.25,0.0,0.0,0.0
1696287123132,-0.64941406,0.5058594,0.39257812,-290.0,-26.75,-32.1875,0.0,0.0,0.0
1696287123165,-1.2705078,0.37890625,0.23144531,-74.71875,0.09375,30.0,0.0,0.0,0.0
1696287123220,-1.5644531,-0.3642578,-0.6875,-167.0625,-35.0625,5.90625,0.0,0.0,0.0
1696287123254,-1.5576172,-0.28808594,-0.14257812,-139.0,-33.71875,-20.59375,0.0,0.0,0.0
1696287123279,-1.5664062,-0.37597656,0.16308594,-114.28125,-15.8125,-19.375,0.0,0.0,0.0
1696287123344,-1.1523438,-0.16503906,-0.28808594,3.40625,2.0,2.5625,0.0,0.0,0.0
1696287123401,-1.4619141,-0.107421875,0.47070312,170.09375,48.4375,11.28125,-81.4375,-40.75,-177.1875
1696287123403,-0.9765625,-0.040039062,0.16308594,-37.4375,46.6875,7.125,0.0,0.0,0.0
1696287123430,-0.7578125,-0.12597656,0.203125,19.5625,40.5625,23.125,0.0,0.0,0.0
1696287123494,-0.6796875,-0.15527344,0.22070312,-0.1875,30.5,20.6875,0.0,0.0,0.0
1696287123521,-0.57910156,-0.0703125,0.3125,7.5625,21.90625,19.53125,0.0,0.0,0.0
1696287123552,-0.49804688,-0.12988281,0.3076172,-0.5625,3.03125,14.5,0.0,0.0,0.0
1696287123582,-0.7753906,-0.17871094,0.38183594,-18.75,-17.46875,20.75,0.0,0.0,0.0
1696287123670,-0.8173828,-0.13183594,0.3310547,-48.53125,-37.6875,16.78125,0.0,0.0,0.0
1696287123674,-0.8251953,-0.3017578,0.27148438,-21.1875,-47.6875,20.5,0.0,0.0,0.0
1696287123701,-0.67871094,-0.16210938,0.032226562,39.40625,-58.5625,29.40625,0.0,0.0,0.0
1696287123763,-0.7470703,-0.09765625,0.3564453,67.375,-48.46875,20.8125,0.0,0.0,0.0
1696287123791,-1.4941406,-0.1875,0.46679688,29.9375,-80.53125,5.46875,0.0,0.0,0.0
1696287123882,-1.6982422,0.14550781,0.61035156,65.96875,-116.71875,6.03125,-78.125,-36.6875,-171.8125
1696287123910,-1.4462891,0.3466797,0.45117188,12.0,-129.65625,26.65625,0.0,0.0,0.0
1696287123913,-1.3378906,-0.12597656,0.6064453,1.5,-73.625,18.71875,0.0,0.0,0.0
1696287123943,-0.9580078,0.045898438,0.39453125,41.375,-29.4375,12.75,0.0,0.0,0.0
1696287124123,-0.73339844,0.13574219,0.29296875,41.65625,15.1875,-3.5,0.0,0.0,0.0
1696287124126,-0.61621094,0.056640625,0.3046875,26.65625,43.8125,1.03125,0.0,0.0,0.0
1696287124128,-0.4560547,0.041992188,0.15625,-9.96875,61.9375,-9.46875,0.0,0.0,0.0
1696287124130,-0.4501953,0.11816406,0.15917969,-40.3125,93.6875,-32.1875,0.0,0.0,0.0
1696287124150,-0.53515625,-0.0107421875,-0.00390625,-37.125,119.96875,-24.0625,0.0,0.0,0.0
1696287124181,-0.75097656,-0.16308594,0.09863281,47.71875,82.6875,-6.125,0.0,0.0,0.0
1696287124243,-0.9296875,-0.1484375,0.22949219,116.8125,126.875,-32.0625,0.0,0.0,0.0
1696287124270,-1.0380859,0.34570312,1.3828125,83.96875,130.90625,-50.375,0.0,0.0,0.0
1696287124301,-0.6123047,0.2578125,0.34765625,-171.53125,16.46875,-24.78125,0.0,0.0,0.0
1696287124361,-0.97753906,0.029296875,0.024414062,-10.9375,-33.28125,-8.75,-79.1875,-38.0625,-178.6875
1696287124389,-1.3789062,-0.2919922,-0.5234375,-286.03125,23.0,-16.625,0.0,0.0,0.0
1696287124422,-1.6914062,-0.3779297,0.7841797,56.25,12.0625,-18.5,0.0,0.0,0.0
1696287124516,-1.8828125,-0.35058594,0.5517578,67.84375,-32.65625,10.25,0.0,0.0,0.0
1696287124520,-1.1357422,-0.09667969,-0.2265625,77.0,-41.03125,15.1875,0.0,0.0,0.0
1696287124541,-1.0966797,-0.11621094,0.24707031,167.34375,36.90625,4.9375,0.0,0.0,0.0
1696287124662,-1.1181641,-0.19433594,0.21679688,22.5625,54.71875,-3.96875,0.0,0.0,0.0
1696287124665,-0.80566406,-0.16699219,0.17871094,-3.5625,62.5,-0.5625,0.0,0.0,0.0
1696287124668,-0.6171875,-0.10839844,0.203125,78.71875,51.5,10.1875,0.0,0.0,0.0
1696287124723,-0.4970703,-0.056640625,0.140625,110.28125,65.84375,23.375,0.0,0.0,0.0
1696287124754,-0.61328125,0.024414062,0.39746094,105.5,72.0,41.5,0.0,0.0,0.0
1696287124781,-0.86328125,-0.4453125,0.07519531,73.21875,15.84375,45.09375,0.0,0.0,0.0
1696287124851,-0.76953125,-0.3876953,0.28320312,143.40625,-5.21875,12.0625,-76.625,-38.0625,-180.0625
1696287124871,-1.0175781,0.00390625,0.5839844,93.3125,-45.78125,6.8125,0.0,0.0,0.0
1696287124901,-2.0,-0.234375,0.2607422,18.0625,-127.28125,3.46875,0.0,0.0,0.0
1696287124966,-1.9619141,0.022460938,-0.09765625,76.53125,-143.6875,-51.28125,0.0,0.0,0.0
1696287124991,-2.0,0.1953125,0.0859375,7.0625,-104.15625,-28.34375,0.0,0.0,0.0
1696287125020,-1.6298828,0.055664062,0.21582031,43.4375,-123.71875,-5.21875,0.0,0.0,0.0
1696287125110,-1.5810547,-0.001953125,-0.31152344,-8.4375,-111.96875,-21.4375,0.0,0.0,0.0
1696287125112,-1.0458984,0.049804688,-0.43359375,2.78125,6.21875,-53.3125,0.0,0.0,0.0
1696287125141,-0.38476562,-0.047851562,0.09863281,167.40625,-44.375,-76.0625,0.0,0.0,0.0
1696287125202,-0.3203125,0.19726562,-0.09375,117.90625,56.625,-34.9375,0.0,0.0,0.0
1696287125234,-0.546875,-0.2626953,-0.08203125,193.78125,56.5625,-36.34375,0.0,0.0,0.0
1696287125261,-0.75390625,0.0390625,0.8984375,259.375,10.59375,-28.34375,0.0,0.0,0.0
1696287125325,-0.9033203,0.16113281,0.32910156,162.46875,-12.84375,-17.34375,0.0,0.0,0.0
1696287125351,-0.79785156,0.3857422,0.17480469,129.4375,-7.40625,-6.59375,-72.625,-29.8125,-159.1875
1696287125381,-0.6845703,0.10546875,0.19824219,60.96875,24.28125,-11.5625,0.0,0.0,0.0
1696287125507,-1.984375,-0.74609375,0.59472656,-76.625,38.125,-31.09375,0.0,0.0,0.0
1696287125511,-0.6171875,0.16601562,-0.90625,-133.4375,14.09375,-66.78125,0.0,0.0,0.0
1696287125515,-0.9707031,-0.36132812,-0.19335938,235.6875,-19.5,19.40625,0.0,0.0,0.0
1696287125561,-1.7353516,-0.46289062,0.083984375,286.4375,50.59375,-24.0625,0.0,0.0,0.0
1696287125625,-1.2167969,0.10644531,-0.10644531,127.84375,62.90625,-58.0,0.0,0.0,0.0
1696287125627,-0.9902344,-0.25097656,0.0546875,182.90625,41.96875,-72.71875,0.0,0.0,0.0
1696287125682,-0.7207031,0.29296875,0.060546875,44.125,94.46875,-88.46875,0.0,0.0,0.0
1696287125710,-0.81152344,0.14453125,-0.025390625,67.6875,84.34375,-30.90625,0.0,0.0,0.0
1696287125741,-0.90234375,-0.28710938,0.08886719,164.15625,100.09375,-18.9375,0.0,0.0,0.0
1696287125862,-0.796875,-0.048828125,0.17089844,31.25,102.875,-22.0,0.0,0.0,0.0
1696287125891,-0.85546875,-0.18457031,-0.047851562,-18.3125,84.40625,6.9375,-81.3125,-24.5625,-177.375
1696287125922,-0.97265625,-0.44140625,-0.015625,8.46875,96.34375,20.84375,0.0,0.0,0.0
1696287125983,-1.1220703,-0.41210938,0.06933594,126.6875,59.3125,16.21875,0.0,0.0,0.0
1696287126011,-1.2246094,-0.10644531,0.46191406,122.84375,21.03125,15.5625,0.0,0.0,0.0
1696287126013,-1.609375,-0.765625,-0.038085938,54.78125,-67.21875,18.21875,0.0,0.0,0.0
1696287126041,-1.3056641,-0.37695312,0.14257812,257.0625,-133.125,5.46875,0.0,0.0,0.0
1696287126081,-1.2285156,0.3955078,-0.25585938,83.0625,-154.4375,12.25,0.0,0.0,0.0
1696287126100,-1.2900391,0.20996094,-0.15722656,167.90625,-180.875,56.25,0.0,0.0,0.0
1696287126162,-1.6513672,-0.6123047,-0.123046875,-1.71875,-87.0625,37.875,0.0,0.0,0.0
1696287126193,-1.1181641,-0.055664062,-0.095703125,-104.4375,-190.875,10.71875,0.0,0.0,0.0
1696287126221,-0.99121094,0.21484375,-0.38476562,178.6875,-192.75,65.40625,0.0,0.0,0.0
1696287126313,-1.0839844,-0.43359375,0.06542969,171.75,-127.46875,-47.3125,0.0,0.0,0.0
1696287126314,-0.22558594,0.51660156,-0.22265625,74.4375,-58.375,-49.34375,0.0,0.0,0.0
1696287126372,0.095703125,0.27929688,0.20117188,10.96875,-37.5625,-5.5,-67.625,-6.125,-163.25
1696287126399,-0.34277344,-0.32910156,0.20507812,-24.0,62.1875,-19.25,0.0,0.0,0.0
1696287126434,-0.5839844,0.0068359375,0.19726562,23.375,50.875,1.875,0.0,0.0,0.0
1696287126463,-0.7285156,-0.034179688,0.06640625,103.875,35.9375,22.8125,0.0,0.0,0.0
1696287126583,-0.9189453,0.13769531,0.43066406,103.625,72.5625,-26.375,0.0,0.0,0.0
1696287126586,-0.7607422,0.0390625,0.6738281,19.09375,40.5,-45.0625,0.0,0.0,0.0
1696287126588,-0.7089844,0.1875,0.3232422,-57.15625,55.40625,-34.125,0.0,0.0,0.0
1696287126643,-0.8535156,-0.017578125,0.03125,-48.40625,71.15625,-24.96875,0.0,0.0,0.0
1696287126672,-1.0722656,0.10644531,0.20214844,-21.4375,40.875,-20.03125,0.0,0.0,0.0
1696287126701,-0.89160156,-0.6015625,-0.41503906,-210.03125,21.65625,-28.34375,0.0,0.0,0.0
1696287126762,-1.6689453,-0.11230469,0.4951172,34.46875,20.84375,-38.21875,0.0,0.0,0.0
1696287126791,-1.5927734,-0.4794922,0.043945312,-202.59375,-3.3125,-55.6875,0.0,0.0,0.0
1696287126823,-1.0966797,-0.022460938,-0.31933594,-30.65625,18.125,-27.53125,-78.0,-17.6875,-167.4375
1696287126912,-1.0878906,0.080078125,-0.09863281,138.90625,44.25,14.875,0.0,0.0,0.0
1696287126940,-1.2167969,-0.051757812,0.7167969,195.34375,33.375,16.78125,0.0,0.0,0.0
1696287126969,-0.79003906,0.08203125,0.35351562,-128.375,31.65625,-5.5625,0.0,0.0,0.0
1696287127003,-0.4267578,-0.01953125,-0.0068359375,7.84375,-0.4375,18.84375,0.0,0.0,0.0
1696287127093,-0.375,-0.42285156,0.43652344,90.75,4.75,22.625,0.0,0.0,0.0
1696287127094,-0.57714844,-0.123046875,0.115234375,-85.21875,11.34375,-4.96875,0.0,0.0,0.0
1696287127120,-0.34277344,0.080078125,-0.07128906,-42.875,7.0625,1.5625,0.0,0.0,0.0
1696287127148,-0.8955078,-0.3203125,0.48046875,84.03125,-39.375,24.65625,0.0,0.0,0.0
1696287127182,-1.0585938,-0.30078125,0.58203125,23.0,-97.71875,9.25,0.0,0.0,0.0
1696287127247,-2.0,0.028320312,0.5888672,176.8125,-199.125,27.625,0.0,0.0,0.0
1696287127269,-1.7617188,0.3232422,0.39160156,110.09375,-206.125,50.65625,0.0,0.0,0.0
1696287127302,-1.8554688,0.5234375,0.60058594,-41.8125,-144.3125,70.53125,0.0,0.0,0.0
1696287127395,-0.72753906,-0.08984375,0.3359375,-22.59375,0.59375,-13.875,-69.875,-7.9375,-161.125
1696287127397,-0.4951172,-0.125,0.28222656,-36.28125,47.46875,-29.125,0.0,0.0,0.0
1696287127421,-0.5283203,0.07324219,0.1875,-68.9375,79.03125,-27.40625,0.0,0.0,0.0
1696287127482,-0.42773438,0.21386719,0.041015625,-45.84375,96.40625,-13.125,0.0,0.0,0.0
1696287127509,-0.39648438,0.17480469,-0.04296875,-0.125,109.78125,-8.125,0.0,0.0,0.0
1696287127540,-0.65625,-0.09472656,-0.013671875,107.09375,81.78125,-5.8125,0.0,0.0,0.0
1696287127634,-0.7871094,-0.13378906,0.37402344,247.71875,247.84375,-18.03125,0.0,0.0,0.0
1696287127636,-0.9091797,0.20507812,1.0898438,118.21875,67.5625,-55.9375,0.0,0.0,0.0
1696287127660,-0.7314453,0.33496094,0.7324219,-209.1875,24.71875,-45.78125,0.0,0.0,0.0
1696287127721,-0.9707031,0.7265625,0.32910156,-231.8125,-61.78125,-41.21875,0.0,0.0,0.0
1696287127755,-1.5166016,-0.061523438,-0.74902344,16.9375,-121.0,46.375,0.0,0.0,0.0
1696287127810,-1.7773438,-0.89453125,0.5703125,34.15625,20.1875,22.6875,0.0,0.0,0.0
1696287127841,-2.0,-0.58496094,-0.087890625,-299.21875,10.65625,-38.71875,-81.125,-15.5625,-175.125
1696287127963,-1.1123047,-0.20214844,-0.14941406,-9.34375,15.125,-26.5,0.0,0.0,0.0
1696287127993,-1.2128906,-0.41015625,0.10546875,73.40625,79.875,1.5,0.0,0.0,0.0
1696287128021,-1.0693359,0.111328125,0.22949219,95.8125,65.28125,8.21875,0.0,0.0,0.0
1696287128023,-0.7402344,0.14746094,0.3408203,53.8125,37.15625,23.59375,0.0,0.0,0.0
1696287128025,-0.4501953,0.0048828125,0.4375,-31.625,-3.5625,31.1875,0.0,0.0,0.0
1696287128083,-0.35058594,-0.020507812,0.03125,-37.96875,-38.09375,34.15625,0.0,0.0,0.0
1696287128112,-0.4404297,-0.08105469,0.29296875,28.5625,-19.96875,27.875,0.0,0.0,0.0
1696287128142,-0.6640625,-0.35058594,-0.28027344,-21.0625,-46.03125,18.125,0.0,0.0,0.0
1696287128238,-0.73339844,-0.40820312,0.421875,17.0,-51.21875,-9.28125,0.0,0.0,0.0
1696287128263,-0.88964844,-0.58496094,0.4345703,8.40625,-36.625,-37.90625,0.0,0.0,0.0
1696287128290,-2.0,-0.11230469,0.97753906,60.59375,-193.1875,-24.84375,0.0,0.0,0.0
1696287128321,-1.6230469,0.33984375,0.35058594,130.40625,-206.3125,-0.75,0.0,0.0,0.0
1696287128350,-1.1064453,0.7548828,0.77441406,28.25,-151.3125,51.875,-78.875,-13.625,-167.3125
1696287128412,-1.4482422,-0.36816406,0.5732422,-16.0625,1.09375,-6.375,0.0,0.0,0.0
1696287128444,-0.8496094,0.19433594,0.234375,13.59375,48.375,-11.0,0.0,0.0,0.0
1696287128504,-0.49023438,0.16503906,0.13574219,16.34375,72.6875,4.375,0.0,0.0,0.0
1696287128505,-0.46289062,0.17285156,0.12597656,10.46875,115.28125,6.9375,0.0,0.0,0.0
1696287128564,-0.46289062,-0.18945312,-0.005859375,50.78125,118.15625,-32.0625,0.0,0.0,0.0
1696287128592,-0.49804688,-0.24121094,0.055664062,59.8125,105.6875,-15.53125,0.0,0.0,0.0
1696287128622,-0.49902344,-0.09863281,0.15136719,105.34375,38.125,-54.9375,0.0,0.0,0.0
1696287128717,-1.0058594,0.06347656,0.15722656,16.28125,134.75,-74.21875,0.0,0.0,0.0
1696287128718,-0.7373047,0.8623047,0.8144531,11.21875,-42.5625,-36.5625,0.0,0.0,0.0
1696287128742,-0.6152344,0.2783203,-0.13378906,-259.90625,-38.84375,-6.0625,0.0,0.0,0.0
1696287128805,-2.0,-0.3466797,1.0654297,229.15625,-22.84375,71.8125,0.0,0.0,0.0
1696287128830,-1.9257812,-0.59375,0.43164062,-118.0625,-103.65625,-39.5625,-85.625,-16.75,-181.125
1696287128861,-1.3486328,-0.0625,-0.36035156,101.65625,-58.125,7.8125,0.0,0.0,0.0
1696287128926,-1.8085938,-0.58496094,1.0185547,201.59375,31.90625,19.09375,0.0,0.0,0.0
1696287128953,-1.3486328,-0.19238281,0.017578125,-186.0625,68.59375,-32.5625,0.0,0.0,0.0
1696287129017,-0.99316406,-0.047851562,0.08886719,96.53125,67.625,7.375,0.0,0.0,0.0
1696287129040,-0.7011719,0.038085938,0.32910156,141.28125,57.65625,29.78125,0.0,0.0,0.0
1696287129071,-0.45996094,-0.08300781,0.35742188,62.375,37.21875,29.09375,0.0,0.0,0.0
1696287129110,-0.32128906,-0.029296875,0.20214844,-28.875,4.875,23.53125,0.0,0.0,0.0
1696287129193,-0.23535156,-0.025390625,0.041015625,53.4375,-25.96875,26.28125,0.0,0.0,0.0
1696287129195,-0.7050781,-9.765625E-4,0.54785156,64.3125,-15.6875,13.28125,0.0,0.0,0.0
1696287129221,-0.9160156,-0.30078125,0.13964844,-74.21875,-39.03125,6.03125,0.0,0.0,0.0
1696287129282,-0.9970703,-0.22363281,0.45214844,25.125,-44.8125,24.34375,0.0,0.0,0.0
1696287129345,-0.86621094,-0.20214844,0.90527344,130.71875,-58.96875,38.0625,0.0,0.0,0.0
1696287129349,-1.5273438,-0.2841797,0.4326172,134.5625,-154.1875,21.34375,-85.5,-10.1875,-182.0
1696287129402,-1.2431641,-0.13476562,0.09472656,132.4375,-151.6875,-22.90625,0.0,0.0,0.0
1696287129432,-1.6757812,0.21777344,0.7001953,-29.0,-46.34375,-55.875,0.0,0.0,0.0
1696287129524,-1.4912109,-0.18554688,0.17089844,-26.375,19.46875,-71.5,0.0,0.0,0.0
1696287129527,-0.97753906,0.17871094,0.3330078,59.96875,23.96875,-58.71875,0.0,0.0,0.0
1696287129584,-0.7080078,0.3466797,0.2265625,45.21875,68.03125,-36.09375,0.0,0.0,0.0
1696287129586,-0.44335938,0.21972656,0.12890625,45.53125,83.78125,-13.6875,0.0,0.0,0.0
1696287129645,-0.27734375,0.30078125,0.08984375,40.8125,63.9375,11.59375,0.0,0.0,0.0
1696287129670,-0.4111328,0.12402344,0.11230469,86.40625,12.5,14.375,0.0,0.0,0.0
1696287129701,-0.6142578,0.072265625,0.5908203,122.65625,66.21875,12.5,0.0,0.0,0.0
1696287129762,-0.9248047,-0.3486328,1.0498047,20.25,-3.625,-10.28125,0.0,0.0,0.0
1696287129852,-0.7138672,-0.17480469,0.6220703,60.28125,-52.375,-34.0625,0.0,0.0,0.0
1696287129858,-0.10058594,-0.24511719,0.49414062,169.71875,-21.625,-9.71875,-87.75,-17.8125,-184.875
1696287129880,-1.6552734,-0.50683594,-2.0,-38.28125,-63.8125,4.9375,0.0,0.0,0.0
1696287129941,-2.0,0.17773438,0.3544922,238.4375,35.75,36.65625,0.0,0.0,0.0
1696287129942,-1.0888672,-0.5859375,0.043945312,-163.90625,22.625,-85.71875,0.0,0.0,0.0
1696287130033,-1.7021484,-0.34960938,-0.5527344,95.8125,91.34375,-14.71875,0.0,0.0,0.0
1696287130035,-1.8085938,-0.30273438,0.18261719,86.40625,100.8125,-22.96875,0.0,0.0,0.0
1696287130063,-1.2138672,0.6357422,0.09375,181.1875,117.28125,-18.6875,0.0,0.0,0.0
1696287130184,-0.84375,-0.0048828125,0.21777344,268.65625,95.75,-10.5,0.0,0.0,0.0
1696287130187,-0.47265625,-0.27441406,0.29492188,104.71875,111.4375,-15.09375,0.0,0.0,0.0
1696287130191,-0.27929688,0.00390625,0.0126953125,88.3125,61.8125,-32.71875,0.0,0.0,0.0
1696287130333,-0.59765625,0.16699219,0.024414062,-20.34375,81.15625,-21.5625,0.0,0.0,0.0
1696287130335,-1.0322266,-0.15917969,0.26367188,39.78125,145.0625,-3.96875,0.0,0.0,0.0
1696287130337,-1.4609375,-0.013671875,0.9580078,152.28125,90.6875,-6.84375,0.0,0.0,0.0
1696287130360,-1.1269531,0.17480469,0.5292969,14.4375,-67.09375,36.90625,-78.0,-28.3125,-211.25
1696287130390,-1.2529297,-0.17578125,0.53027344,180.84375,-157.78125,118.28125,0.0,0.0,0.0
1696287130423,-1.828125,-0.87402344,-0.60253906,-32.5625,-293.96875,65.78125,0.0,0.0,0.0
1696287130485,-0.9941406,-0.42285156,-0.5048828,348.5625,-110.375,-4.78125,0.0,0.0,0.0
1696287130542,-1.890625,-0.30273438,1.0625,43.4375,-154.125,13.84375,0.0,0.0,0.0
1696287130545,-1.7314453,-0.4013672,-0.2578125,-128.75,-219.25,-19.90625,0.0,0.0,0.0
1696287130600,-1.1503906,0.029296875,-0.8095703,91.34375,-26.125,-120.5,0.0,0.0,0.0
1696287130634,-1.0429688,-0.5810547,0.0087890625,334.03125,-96.34375,-127.46875,0.0,0.0,0.0
1696287130663,-0.4482422,0.4609375,-0.3671875,233.125,-26.3125,-57.9375,0.0,0.0,0.0
1696287130754,-0.6279297,0.53027344,-0.06542969,229.78125,-45.25,-19.1875,0.0,0.0,0.0
1696287130756,-0.5097656,-0.0087890625,0.09375,189.75,-0.125,-63.4375,0.0,0.0,0.0
1696287130780,-0.44335938,0.12402344,0.4423828,139.5,-13.875,-78.03125,0.0,0.0,0.0
1696287130841,-0.6171875,-0.00390625,0.82910156,54.0,21.78125,-89.4375,-84.125,-30.25,-177.625
1696287130869,-0.48046875,-0.41308594,0.072265625,3.59375,23.25,-74.1875,0.0,0.0,0.0
1696287130932,-2.0,-1.4335938,2.0,-170.0625,-54.28125,-145.65625,0.0,0.0,0.0
1696287130960,-1.3007812,1.0009766,-0.16796875,12.6875,-92.90625,-46.34375,0.0,0.0,0.0
1696287130995,-0.8486328,0.6953125,-0.13183594,38.5625,-21.25,63.40625,0.0,0.0,0.0
1696287131053,-2.0,-0.6425781,0.41992188,66.5,-7.9375,70.46875,0.0,0.0,0.0
1696287131081,-1.0947266,-0.203125,0.119140625,-63.375,77.6875,-67.65625,0.0,0.0,0.0
1696287131111,-0.7783203,-0.25683594,0.17285156,62.4375,74.4375,-32.4375,0.0,0.0,0.0
1696287131171,-0.83496094,-0.18066406,0.35546875,44.0,67.625,-19.375,0.0,0.0,0.0
1696287131202,-0.8339844,0.18457031,0.7236328,28.375,37.53125,0.53125,0.0,0.0,0.0
1696287131293,-0.5253906,0.103515625,0.5957031,-64.65625,-7.03125,-6.0625,0.0,0.0,0.0
1696287131321,-0.31445312,-0.013671875,0.17773438,-86.125,-28.75,-3.3125,0.0,0.0,0.0
1696287131382,-1.0722656,-0.48535156,0.94140625,1.4375,-126.71875,17.875,0.0,0.0,0.0
1696287131412,-1.2802734,-0.11328125,0.12402344,101.4375,-245.1875,50.9375,-85.5,-41.5,-173.0
1696287131414,-0.4423828,0.21484375,-0.6542969,187.53125,-291.34375,109.0,0.0,0.0,0.0
1696287131445,-0.034179688,-0.3095703,0.7324219,66.9375,-193.75,17.3125,0.0,0.0,0.0
1696287131470,-1.6572266,0.051757812,0.36816406,-98.21875,-1.34375,-57.21875,0.0,0.0,0.0
1696287131500,-1.1005859,0.36328125,1.0820312,-22.0625,23.125,11.59375,0.0,0.0,0.0
1696287131563,-0.7705078,0.19726562,1.0371094,-50.5625,142.5,-59.53125,0.0,0.0,0.0
1696287131590,-0.8232422,0.10546875,0.27148438,-131.71875,163.5625,-34.875,0.0,0.0,0.0
1696287131620,-0.96875,0.017578125,0.18066406,36.90625,136.53125,44.125,0.0,0.0,0.0
1696287131711,-1.2314453,-0.01953125,0.6542969,279.9375,157.53125,28.5625,0.0,0.0,0.0
1696287131742,-0.81152344,-0.030273438,0.5449219,49.65625,137.1875,-26.4375,0.0,0.0,0.0
1696287131749,-0.33691406,-0.06640625,0.27929688,-8.0625,78.71875,-29.5,0.0,0.0,0.0
1696287131861,-0.42285156,0.11035156,0.30273438,-18.09375,33.8125,-31.4375,-87.875,-36.875,-178.25
1696287131890,-0.46777344,0.27441406,0.16308594,-28.15625,41.84375,-27.1875,0.0,0.0,0.0
1696287131922,-1.1777344,-0.068359375,0.26171875,-115.1875,-53.40625,-4.59375,0.0,0.0,0.0
1696287131982,-1.4726562,-0.28710938,-0.85058594,-129.09375,-26.4375,-27.65625,0.0,0.0,0.0
1696287132011,-2.0,-0.7988281,0.5175781,-74.34375,-76.84375,-30.40625,0.0,0.0,0.0
1696287132017,-0.6611328,0.16015625,-0.53515625,-52.9375,-83.9375,-4.21875,0.0,0.0,0.0
1696287132019,-1.3583984,-0.1171875,-0.13574219,220.625,57.71875,40.4375,0.0,0.0,0.0
1696287132102,-1.2138672,-0.29101562,0.5908203,-59.03125,37.65625,-1.125,0.0,0.0,0.0
1696287132104,-0.8466797,-0.09082031,0.4736328,-195.5,47.46875,-34.25,0.0,0.0,0.0
1696287132131,-0.36523438,-0.043945312,0.14160156,-17.40625,-4.65625,5.34375,0.0,0.0,0.0
1696287132191,-0.60839844,-0.053710938,0.3154297,40.75,-29.8125,23.96875,0.0,0.0,0.0
1696287132221,-0.5439453,-0.17285156,0.11328125,29.78125,-28.75,37.28125,0.0,0.0,0.0
1696287132256,-0.7578125,-0.53222656,0.6923828,123.40625,-105.25,16.78125,0.0,0.0,0.0
1696287132314,-1.2773438,-0.4111328,0.3564453,128.90625,-196.5,38.125,0.0,0.0,0.0
1696287132340,-1.1894531,0.38671875,0.40527344,191.34375,-218.46875,64.0,-82.0625,-33.5625,-166.25
1696287132371,-1.3095703,0.35253906,0.43945312,67.90625,-112.75,38.5625,0.0,0.0,0.0
1696287132490,-1.2841797,0.41601562,0.6191406,-20.34375,-4.46875,-37.75,0.0,0.0,0.0
1696287132492,-1.0488281,0.05078125,0.5859375,-15.15625,40.75,-32.5,0.0,0.0,0.0
1696287132494,-0.6591797,0.123046875,0.32910156,-157.25,98.1875,-69.59375,0.0,0.0,0.0
1696287132552,-0.59765625,0.20605469,0.16503906,-106.9375,158.375,-67.28125,0.0,0.0,0.0
1696287132583,-0.6347656,0.125,0.10839844,-42.25,178.34375,9.9375,0.0,0.0,0.0
1696287132640,-0.79296875,-0.0234375,0.08496094,117.0625,95.375,24.71875,0.0,0.0,0.0
1696287132672,-0.65527344,-0.11035156,0.5,185.15625,116.875,1.375,0.0,0.0,0.0
1696287132704,-0.78808594,0.057617188,1.0742188,43.125,73.46875,-26.4375,0.0,0.0,0.0
1696287132733,-0.40429688,0.29492188,0.3876953,-183.125,2.125,-23.75,0.0,0.0,0.0
1696287132789,-0.81347656,0.4169922,0.3076172,-177.5625,-13.75,-6.78125,0.0,0.0,0.0
1696287132819,-1.8222656,-0.53125,-0.609375,-183.78125,-76.0,-1.53125,-85.9375,-37.0,-180.8125
1696287132851,-1.2294922,-0.10253906,-0.42773438,-103.71875,-20.9375,-16.25,0.0,0.0,0.0
1696287132911,-2.0,-0.7626953,0.109375,-67.09375,35.15625,-20.65625,0.0,0.0,0.0
1696287132940,-1.0351562,0.19042969,-0.16699219,-37.375,22.75,1.5625,0.0,0.0,0.0
1696287133001,-1.28125,-0.16601562,0.16894531,172.53125,41.71875,43.75,0.0,0.0,0.0
1696287133032,-0.9628906,-0.1171875,0.35839844,39.46875,50.8125,26.46875,0.0,0.0,0.0
1696287133060,-0.6044922,-0.0546875,0.22949219,-88.15625,56.9375,6.6875,0.0,0.0,0.0
1696287133093,-0.4814453,0.055664062,0.7626953,-78.9375,12.875,4.125,0.0,0.0,0.0
1696287133180,-0.39453125,0.024414062,0.07128906,-76.3125,-46.03125,10.375,0.0,0.0,0.0
1696287133210,-0.49609375,-0.32128906,-0.0625,-154.9375,-54.34375,3.34375,0.0,0.0,0.0
1696287133211,-0.43066406,-0.2734375,-0.26464844,110.6875,-56.0,32.6875,0.0,0.0,0.0
1696287133273,-0.80859375,-0.68847656,0.24414062,58.46875,-85.46875,-3.375,0.0,0.0,0.0
1696287133305,-1.9492188,-0.18359375,0.8105469,80.71875,-196.125,-3.375,0.0,0.0,0.0
1696287133395,-1.7871094,0.30371094,0.48242188,159.15625,-217.0625,30.0,-80.125,-36.875,-169.875
1696287133421,-1.0126953,0.6220703,0.6484375,70.59375,-166.6875,61.09375,0.0,0.0,0.0
1696287133424,-1.4863281,-0.072265625,0.7138672,-21.8125,-1.25,-8.125,0.0,0.0,0.0
1696287133454,-0.88964844,0.07128906,0.296875,16.90625,46.4375,-32.25,0.0,0.0,0.0
1696287133512,-0.46679688,0.24511719,0.26660156,-26.0625,88.71875,-26.1875,0.0,0.0,0.0
1696287133539,-0.31152344,0.18652344,0.03515625,-34.9375,128.03125,-20.40625,0.0,0.0,0.0
1696287133570,-0.46191406,-0.043945312,-0.09277344,39.0625,113.3125,-25.96875,0.0,0.0,0.0
1696287133694,-0.64941406,-0.16503906,0.07910156,189.0625,83.3125,-10.34375,0.0,0.0,0.0
1696287133722,-0.64941406,-0.0390625,0.5722656,153.84375,121.4375,-46.28125,0.0,0.0,0.0
1696287133723,-0.765625,0.265625,0.8671875,-15.21875,81.46875,-43.15625,0.0,0.0,0.0
1696287133784,-0.87890625,0.21484375,0.36132812,-125.9375,7.3125,-27.53125,0.0,0.0,0.0
1696287133786,-0.5605469,0.34765625,0.1640625,-70.9375,22.03125,-9.78125,0.0,0.0,0.0
1696287133809,-1.4121094,0.46777344,1.4902344,183.8125,-41.28125,31.65625,-80.375,-37.625,-177.5
1696287133874,-1.3056641,-0.15429688,-1.484375,-293.53125,-83.09375,-3.0625,0.0,0.0,0.0
1696287133898,-2.0,-0.72753906,2.0,128.84375,25.6875,-35.34375,0.0,0.0,0.0
1696287133933,-1.1728516,0.13671875,-0.2705078,-235.5,2.3125,-56.96875,0.0,0.0,0.0
1696287134024,-1.3408203,-0.24609375,-0.11816406,220.5625,-28.09375,33.6875,0.0,0.0,0.0
1696287134050,-1.5341797,-0.5419922,0.6826172,178.75,12.0625,37.28125,0.0,0.0,0.0
1696287134113,-0.9199219,0.07714844,0.12207031,67.0625,46.375,20.84375,0.0,0.0,0.0
1696287134142,-0.78222656,-0.13769531,0.3125,63.21875,44.71875,30.0,0.0,0.0,0.0
1696287134145,-0.5878906,-0.22949219,0.1484375,87.375,47.59375,32.21875,0.0,0.0,0.0
1696287134171,-0.49414062,-0.016601562,0.18652344,106.75,54.96875,23.84375,0.0,0.0,0.0
1696287134262,-0.41503906,-0.080078125,0.11621094,66.75,60.46875,28.4375,0.0,0.0,0.0
1696287134292,-0.73046875,-0.17675781,0.40234375,6.15625,61.4375,18.84375,0.0,0.0,0.0
1696287134294,-0.8769531,-0.45507812,0.3623047,-42.875,53.6875,9.125,0.0,0.0,0.0
1696287134382,-0.80566406,-0.14648438,0.37597656,116.125,0.71875,14.5,-80.25,-32.8125,-184.5625
1696287134387,-1.9013672,0.3408203,0.9941406,166.90625,-141.375,48.03125,0.0,0.0,0.0
1696287134445,-2.0,-0.6201172,-0.12109375,167.59375,-231.21875,12.375,0.0,0.0,0.0
1696287134475,-1.359375,0.91796875,0.3125,-24.84375,-136.90625,-21.0,0.0,0.0,0.0
1696287134500,-1.6298828,-0.50097656,0.08886719,-252.40625,-128.0,-34.875,0.0,0.0,0.0
1696287134533,-1.3251953,-0.60253906,-0.48339844,94.34375,-90.65625,-46.71875,0.0,0.0,0.0
1696287134625,-1.1025391,-0.4638672,-0.31152344,63.28125,6.875,-108.96875,0.0,0.0,0.0
1696287134653,-0.5390625,-0.1875,-0.25195312,286.375,25.625,-132.71875,0.0,0.0,0.0
1696287134657,-0.53808594,0.35546875,-0.32226562,291.90625,14.75,-62.46875,0.0,0.0,0.0
1696287134746,-0.87890625,0.4794922,-0.049804688,244.5625,21.90625,-37.3125,0.0,0.0,0.0
1696287134748,-0.60253906,0.3984375,0.32714844,248.21875,-4.65625,-28.28125,0.0,0.0,0.0
1696287134771,-1.1044922,-0.049804688,0.8642578,116.1875,1.3125,-26.3125,0.0,0.0,0.0
1696287134836,-1.2148438,-0.80566406,0.7128906,191.75,-94.625,-45.96875,-76.5,-19.0,-162.0625
1696287134861,-0.4501953,-0.33398438,0.21777344,140.375,-42.9375,-82.90625,0.0,0.0,0.0
1696287134892,-0.5498047,0.0126953125,0.12109375,132.0625,25.125,-66.84375,0.0,0.0,0.0
1696287135098,-2.0,0.0087890625,0.35058594,-30.34375,46.8125,-55.0,0.0,0.0,0.0
1696287135138,-0.10839844,0.28808594,-1.2285156,26.03125,-39.375,-120.0,0.0,0.0,0.0
1696287135139,-0.58691406,0.18359375,-0.40527344,74.4375,35.5625,4.5625,0.0,0.0,0.0
1696287135140,-2.0,-0.34960938,-0.5498047,136.03125,-29.75,60.53125,0.0,0.0,0.0
1696287135141,-1.0634766,0.013671875,0.041015625,385.40625,122.1875,-39.625,0.0,0.0,0.0
1696287135142,-1.0371094,0.08203125,0.040039062,132.625,30.0625,-42.0625,0.0,0.0,0.0
1696287135190,-0.68847656,0.00390625,-0.099609375,8.28125,57.96875,-55.875,0.0,0.0,0.0
1696287135223,-0.71191406,0.28710938,0.0126953125,-37.3125,121.25,-40.0,0.0,0.0,0.0
1696287135251,-0.82128906,0.034179688,0.11035156,101.3125,79.09375,7.375,0.0,0.0,0.0
1696287135310,-0.9941406,-0.3486328,0.20800781,63.15625,98.4375,2.0,0.0,0.0,0.0
1696287135370,-1.0634766,-0.19042969,0.8261719,134.875,102.78125,-9.59375,-87.875,-9.4375,-188.125
1696287135400,-1.0908203,-0.14550781,0.6855469,14.8125,-20.9375,23.46875,0.0,0.0,0.0
1696287135430,-1.7158203,-0.73535156,0.083984375,106.625,-83.6875,45.875,0.0,0.0,0.0
1696287135490,-0.7441406,-0.33984375,-0.71875,160.9375,-181.96875,6.21875,0.0,0.0,0.0
1696287135522,-1.5117188,0.64941406,-0.2607422,24.53125,-204.4375,-0.625,0.0,0.0,0.0
1696287135549,-1.3847656,0.5644531,-0.11816406,52.84375,-147.53125,24.09375,0.0,0.0,0.0
1696287135581,-1.4560547,-0.38867188,-0.3203125,-173.40625,-164.5625,19.6875,0.0,0.0,0.0
1696287135610,-1.3779297,-0.48046875,0.08203125,92.34375,-88.6875,3.34375,0.0,0.0,0.0
1696287135671,-0.73828125,-0.13378906,-0.27539062,35.375,-102.375,-45.65625,0.0,0.0,0.0
1696287135702,-0.32128906,0.32128906,-0.047851562,72.5625,-82.09375,-36.8125,0.0,0.0,0.0
1696287135762,-0.036132812,0.4482422,0.032226562,35.5625,24.09375,-60.25,0.0,0.0,0.0
1696287135790,-0.1640625,0.14355469,0.11621094,32.75,59.75,-31.875,0.0,0.0,0.0
1696287135821,-0.390625,0.0078125,0.25390625,31.40625,84.59375,-25.78125,-77.6875,-0.6875,-155.875
1696287135880,-0.7714844,-0.14257812,0.28710938,131.625,111.0,-15.40625,0.0,0.0,0.0
1696287135911,-1.1269531,-0.22265625,0.3876953,174.0,82.0625,-48.96875,0.0,0.0,0.0
1696287135941,-0.890625,0.3623047,0.53125,22.6875,31.84375,-45.78125,0.0,0.0,0.0
1696287135975,-0.8671875,0.17578125,0.42871094,-48.65625,9.875,-21.8125,0.0,0.0,0.0
1696287136031,-0.3701172,0.10253906,0.20800781,-40.0,-6.0,-0.625,0.0,0.0,0.0
1696287136059,-1.2734375,-0.15820312,0.2841797,66.6875,4.9375,-21.3125,0.0,0.0,0.0
1696287136090,-2.0,-1.2666016,2.0,-120.3125,15.90625,-42.875,0.0,0.0,0.0
1696287136151,-1.2773438,0.10839844,-0.23828125,-151.125,-60.6875,-50.625,0.0,0.0,0.0
1696287136180,-1.1767578,-0.060546875,-0.38671875,159.28125,-50.90625,6.5625,0.0,0.0,0.0
1696287136245,-1.2021484,-0.34960938,1.1142578,225.5625,31.1875,2.0,0.0,0.0,0.0
1696287136272,-0.97558594,-0.4296875,0.25390625,-167.5625,35.625,-34.5625,0.0,0.0,0.0
1696287136300,-0.47265625,0.4609375,0.20410156,11.75,-11.90625,-8.75,0.0,0.0,0.0
1696287136331,-0.060546875,0.4453125,0.043945312,121.03125,-13.6875,25.1875,-84.0,-10.1875,-164.0
1696287136391,-0.5253906,0.051757812,0.96972656,137.5,-20.875,44.59375,0.0,0.0,0.0
1696287136421,-1.0507812,-0.4404297,0.3857422,-96.21875,-60.5,28.84375,0.0,0.0,0.0
1696287136449,-0.3798828,-0.016601562,0.13574219,138.15625,-102.8125,41.375,0.0,0.0,0.0
1696287136510,-1.4892578,-0.2734375,0.75390625,133.15625,-163.65625,64.625,0.0,0.0,0.0
1696287136540,-2.0,0.86816406,0.5800781,28.1875,-146.875,63.71875,0.0,0.0,0.0
1696287136573,-0.7519531,0.6484375,0.77734375,-59.84375,-80.03125,-4.90625,0.0,0.0,0.0
1696287136631,-1.0458984,0.28808594,0.4609375,-64.40625,12.3125,-12.84375,0.0,0.0,0.0
1696287136691,-0.6972656,0.08105469,0.4169922,-41.46875,55.15625,-3.96875,0.0,0.0,0.0
1696287136693,-0.328125,0.15625,0.35742188,-41.21875,99.53125,-5.21875,0.0,0.0,0.0
1696287136751,0.00390625,-0.05078125,0.08691406,40.9375,118.46875,6.6875,0.0,0.0,0.0
1696287136780,-0.5517578,-0.234375,-0.09863281,135.3125,142.0625,-15.59375,0.0,0.0,0.0
1696287136841,-0.7763672,0.051757812,0.74902344,189.5625,159.78125,-93.71875,0.0,0.0,0.0
1696287136900,-0.5751953,0.0703125,0.6845703,-45.65625,89.875,-81.875,-76.375,-4.3125,-173.875
1696287136930,-0.53027344,0.15234375,0.24023438,-207.84375,59.90625,-68.125,0.0,0.0,0.0
1696287136931,-1.6572266,0.6533203,-0.033203125,-81.4375,25.25,21.34375,0.0,0.0,0.0
1696287137021,-2.0,-0.42089844,1.3857422,102.15625,-50.96875,15.96875,0.0,0.0,0.0
1696287137022,-1.3125,-0.21679688,-0.4013672,-364.28125,-52.875,-49.34375,0.0,0.0,0.0
1696287137051,-1.0126953,0.09082031,-0.171875,5.28125,-27.0625,4.3125,0.0,0.0,0.0
1696287137113,-1.1152344,-0.37597656,0.33398438,110.875,38.8125,21.90625,0.0,0.0,0.0
1696287137141,-0.90234375,0.09667969,0.25683594,-35.90625,51.5625,-3.5,0.0,0.0,0.0
1696287137170,-0.40234375,-0.0703125,0.1875,-63.1875,59.625,0.15625,0.0,0.0,0.0
1696287137355,-0.6201172,-0.12597656,0.7480469,39.96875,14.21875,10.46875,0.0,0.0,0.0
1696287137361,-0.6582031,0.21289062,0.49609375,-104.4375,-33.09375,10.375,0.0,0.0,0.0
1696287137362,-0.6230469,-0.24902344,0.12792969,-53.65625,-68.875,23.78125,0.0,0.0,0.0
1696287137362,-1.0332031,-0.5332031,0.6464844,216.96875,-197.21875,52.65625,-75.75,-18.4375,-169.25
1696287137382,-1.7578125,-0.047851562,0.30078125,209.34375,-214.75,53.21875,0.0,0.0,0.0
1696287137410,-1.4707031,0.6855469,0.5986328,84.03125,-196.65625,66.09375,0.0,0.0,0.0
1696287137470,-1.2431641,0.28515625,0.6777344,-55.1875,-67.09375,4.8125,0.0,0.0,0.0
1696287137502,-0.9248047,0.0068359375,0.609375,7.8125,5.78125,-7.8125,0.0,0.0,0.0
1696287137528,-0.6591797,0.21972656,0.4189453,1.09375,65.96875,-15.8125,0.0,0.0,0.0
1696287137628,-0.46875,0.13085938,0.2734375,5.46875,124.625,-16.625,0.0,0.0,0.0
1696287137631,-0.4189453,0.013671875,0.16601562,32.21875,126.09375,-24.0,0.0,0.0,0.0
1696287137657,-0.5644531,-0.08203125,0.10839844,101.84375,125.59375,-39.8125,0.0,0.0,0.0
1696287137711,-0.6347656,-0.23339844,0.3076172,57.0625,113.5625,-64.78125,0.0,0.0,0.0
1696287137740,-0.58691406,0.016601562,0.32617188,25.25,81.78125,-58.65625,0.0,0.0,0.0
1696287137791,-0.7626953,-0.038085938,0.3857422,57.90625,82.6875,-48.28125,0.0,0.0,0.0
1696287137860,-0.8671875,0.22558594,0.33984375,-14.1875,56.5625,-54.21875,0.0,0.0,0.0
1696287137861,-0.8066406,0.5332031,0.4814453,-15.03125,47.28125,-42.4375,-77.125,-14.6875,-184.875
1696287137889,-1.6865234,0.734375,0.61035156,5.46875,-21.75,10.375,0.0,0.0,0.0
1696287137981,-0.9902344,0.0029296875,-0.7998047,-338.8125,-108.96875,19.625,0.0,0.0,0.0
1696287137986,-2.0,-1.4023438,0.03125,-98.09375,-25.59375,-14.46875,0.0,0.0,0.0
1696287138010,-1.4208984,-0.080078125,-0.25585938,-4.15625,2.5,-15.28125,0.0,0.0,0.0
1696287138070,-1.15625,-0.14257812,-0.16796875,130.71875,45.75,10.0625,0.0,0.0,0.0
1696287138103,-0.9628906,-0.22753906,0.36816406,104.71875,95.03125,18.21875,0.0,0.0,0.0
1696287138133,-0.6298828,-0.0703125,0.11230469,36.0625,79.28125,17.5625,0.0,0.0,0.0
1696287138196,-0.45214844,0.107421875,0.44628906,158.5,43.3125,24.59375,0.0,0.0,0.0
1696287138219,-0.3251953,-0.09667969,0.08691406,-3.125,-5.375,29.84375,0.0,0.0,0.0
1696287138249,-0.46289062,-0.20996094,0.4169922,77.375,-12.46875,29.21875,0.0,0.0,0.0
1696287138340,-0.875,-0.14550781,0.20410156,-5.4375,-39.03125,19.40625,0.0,0.0,0.0
1696287138342,-0.8125,-0.35546875,0.2548828,100.5,-91.6875,28.65625,-78.125,-13.1875,-193.5625
1696287138373,-1.7871094,-0.18652344,0.44140625,98.375,-179.09375,3.90625,0.0,0.0,0.0
1696287138431,-1.8046875,0.28515625,0.25,155.0625,-187.9375,-20.46875,0.0,0.0,0.0
1696287138460,-1.7666016,0.64160156,0.28710938,31.65625,-123.625,-7.53125,0.0,0.0,0.0
1696287138489,-1.140625,0.072265625,0.31152344,-12.65625,-40.84375,-28.15625,0.0,0.0,0.0
1696287138582,-0.9970703,-0.115234375,0.1171875,-27.65625,31.34375,-81.8125,0.0,0.0,0.0
1696287138584,-0.27441406,0.42871094,-0.064453125,-43.78125,73.59375,-62.28125,0.0,0.0,0.0
1696287138609,-0.4580078,0.21289062,0.11035156,-34.5,93.125,5.78125,0.0,0.0,0.0
1696287138670,-0.56152344,0.17578125,-0.0146484375,95.9375,92.15625,31.34375,0.0,0.0,0.0
1696287138701,-0.7060547,0.07519531,0.46289062,339.53125,94.78125,39.53125,0.0,0.0,0.0
1696287138759,-1.1142578,0.08496094,1.8535156,47.46875,-9.21875,7.5625,0.0,0.0,0.0
1696287138789,-0.6689453,-0.0068359375,0.046875,-73.8125,-116.40625,2.3125,0.0,0.0,0.0
1696287138821,-0.6201172,-1.4501953,-1.8476562,-82.90625,-115.8125,-20.34375,0.0,0.0,0.0
1696287138883,-2.0,-0.21484375,1.3984375,-4.78125,264.9375,-37.90625,-79.375,-19.0,-185.4375
1696287138910,-1.4882812,-0.078125,-0.23828125,-114.15625,-14.3125,-17.15625,0.0,0.0,0.0
1696287138940,-1.5058594,-0.13964844,-0.3857422,174.125,46.125,0.65625,0.0,0.0,0.0
1696287138972,-1.421875,-0.10839844,0.2861328,66.28125,97.65625,-17.28125,0.0,0.0,0.0
1696287139032,-0.9248047,-0.08300781,0.047851562,72.25,96.78125,-13.75,0.0,0.0,0.0
1696287139065,-0.61328125,-0.08691406,0.20703125,101.5625,83.65625,-9.0625,0.0,0.0,0.0
1696287139090,-0.37597656,-0.005859375,0.13085938,95.8125,69.375,-14.46875,0.0,0.0,0.0
1696287139180,-0.74121094,0.22558594,0.053710938,-51.21875,72.375,-10.4375,0.0,0.0,0.0
1696287139213,-0.8417969,-0.111328125,0.12207031,-7.21875,82.625,23.4375,0.0,0.0,0.0
1696287139215,-1.1943359,-0.2998047,0.24707031,-17.84375,81.90625,25.625,0.0,0.0,0.0
1696287139304,-1.4228516,-0.05859375,0.58496094,86.53125,80.78125,13.71875,0.0,0.0,0.0
1696287139360,-1.5429688,-0.4111328,0.4423828,-9.65625,-53.53125,23.96875,0.0,0.0,0.0
1696287139391,-1.1972656,-0.8798828,-0.19335938,81.71875,-109.375,12.375,-75.875,-20.6875,-209.0
1696287139420,-1.3320312,0.030273438,0.4248047,196.09375,-231.59375,49.53125,0.0,0.0,0.0
1696287139422,-1.0859375,-0.19726562,0.02734375,216.53125,-192.8125,51.25,0.0,0.0,0.0
1696287139453,-1.5595703,-1.484375,0.0068359375,244.90625,-224.8125,-24.25,0.0,0.0,0.0
1696287139512,-1.2890625,-0.4375,-0.14160156,94.21875,-168.90625,-37.5,0.0,0.0,0.0
1696287139542,-1.2597656,-0.119140625,-0.018554688,97.9375,-107.875,-74.1875,0.0,0.0,0.0
1696287139572,-0.7753906,0.044921875,-0.22363281,290.03125,-70.03125,-133.5,0.0,0.0,0.0
1696287139632,-0.765625,-0.0234375,-0.31933594,258.09375,-29.75,-109.03125,0.0,0.0,0.0
1696287139659,-0.8125,0.22753906,-0.17089844,223.625,-33.28125,-70.9375,0.0,0.0,0.0
1696287139691,-0.56933594,0.53125,-0.029296875,152.75,13.0,-91.1875,0.0,0.0,0.0
1696287139753,-0.4892578,0.4091797,0.16992188,84.09375,64.1875,-102.8125,0.0,0.0,0.0
1696287139781,-0.8066406,0.0625,0.6015625,46.1875,94.09375,-72.84375,0.0,0.0,0.0
1696287139811,-1.6376953,0.0068359375,1.6865234,126.3125,-1.34375,-21.25,0.0,0.0,0.0
1696287139870,-0.6308594,-0.13183594,0.34765625,87.15625,-87.53125,-0.6875,-84.4375,-34.0,-185.0
1696287139900,-0.19140625,-0.3388672,0.21484375,39.0625,46.4375,-94.0625,0.0,0.0,0.0
1696287139930,-2.0,-1.0683594,1.6083984,-128.8125,-4.40625,-88.8125,0.0,0.0,0.0
1696287139992,-0.35839844,0.91015625,-1.1757812,-65.625,-46.15625,-64.09375,0.0,0.0,0.0
1696287140023,-0.34570312,0.9189453,0.15429688,173.5625,60.84375,44.28125,0.0,0.0,0.0
1696287140050,-1.9345703,-0.01953125,-0.38085938,66.4375,-18.25,114.25,0.0,0.0,0.0
1696287140111,-1.2060547,-0.5546875,0.6855469,-56.53125,27.4375,-57.09375,0.0,0.0,0.0
1696287140139,-0.6982422,0.15039062,-0.00390625,-12.53125,56.625,-33.21875,0.0,0.0,0.0
1696287140204,-0.7597656,-0.16894531,0.35546875,56.9375,30.6875,3.09375,0.0,0.0,0.0
1696287140231,-0.82910156,-0.06347656,0.43066406,27.375,12.5,2.78125,0.0,0.0,0.0
1696287140291,-0.56640625,0.01953125,0.27148438,-1.0,-12.40625,6.8125,0.0,0.0,0.0
1696287140323,-0.61035156,-0.04296875,0.58203125,27.8125,-40.40625,18.53125,0.0,0.0,0.0
1696287140350,-0.7763672,-0.07324219,0.12597656,7.3125,-50.25,13.03125,-83.125,-38.0625,-181.125
1696287140382,-0.6171875,-0.11621094,0.08984375,13.65625,-43.40625,12.5,0.0,0.0,0.0
1696287140411,-0.69433594,-0.34472656,0.30273438,42.28125,-6.4375,2.71875,0.0,0.0,0.0
1696287140504,-1.1044922,-0.09472656,0.48046875,-6.96875,-36.875,2.65625,0.0,0.0,0.0
1696287140506,-1.3603516,0.15136719,0.7871094,79.5,-146.1875,34.53125,0.0,0.0,0.0
1696287140534,-1.71875,0.083984375,0.3935547,116.8125,-190.8125,39.90625,0.0,0.0,0.0
1696287140560,-1.1689453,0.3017578,0.30566406,12.0,-114.15625,8.46875,0.0,0.0,0.0
1696287140655,-1.1826172,-0.099609375,0.6953125,-40.25,-54.40625,-5.375,0.0,0.0,0.0
1696287140657,-0.8642578,0.0126953125,0.37304688,-24.25,7.84375,-41.28125,0.0,0.0,0.0
1696287140681,-0.7109375,0.3017578,0.3076172,-50.78125,58.6875,-38.28125,0.0,0.0,0.0
1696287140743,-0.5683594,0.20019531,0.18847656,-42.1875,124.1875,-34.5625,0.0,0.0,0.0
1696287140770,-0.40527344,0.16015625,-0.0390625,34.03125,142.0625,-15.875,0.0,0.0,0.0
1696287140800,-0.84375,-0.20410156,0.099609375,150.5625,151.21875,-1.71875,0.0,0.0,0.0
1696287140862,-0.66796875,0.076171875,0.4033203,152.21875,176.75,-49.5,-78.625,-37.625,-173.3125
1696287140891,-1.0615234,-0.08984375,1.1259766,11.03125,114.25,-50.75,0.0,0.0,0.0
1696287140922,-0.6699219,0.33007812,0.41210938,-33.34375,7.1875,-39.375,0.0,0.0,0.0
1696287141045,-0.56152344,0.42773438,-0.09277344,-29.3125,-35.125,-24.0,0.0,0.0,0.0
1696287141047,-1.4882812,-0.5498047,0.35351562,-11.6875,5.1875,1.625,0.0,0.0,0.0
1696287141049,-1.7011719,-0.21679688,0.0126953125,-145.21875,-44.3125,-43.84375,0.0,0.0,0.0
1696287141104,-2.0,-0.5019531,0.30859375,-28.34375,-48.125,-15.75,0.0,0.0,0.0
1696287141130,-0.9345703,0.12597656,-0.16699219,-72.28125,-14.46875,-29.4375,0.0,0.0,0.0
1696287141161,-1.0166016,-0.24414062,-0.11425781,59.875,4.75,10.46875,0.0,0.0,0.0
1696287141221,-0.5449219,0.04296875,-0.08203125,34.59375,49.65625,30.8125,0.0,0.0,0.0
1696287141260,-0.6484375,-0.06640625,0.3330078,17.4375,68.34375,29.46875,0.0,0.0,0.0
1696287141278,-1.2675781,-0.2685547,1.0693359,-141.5625,0.15625,1.875,0.0,0.0,0.0
1696287141341,-0.5097656,0.10839844,-0.09472656,-102.625,-24.625,3.46875,-78.125,-44.5,-182.4375
1696287141371,-0.4921875,-0.4970703,0.16992188,73.78125,-63.84375,45.34375,0.0,0.0,0.0
1696287141405,-0.9238281,-0.6503906,0.0625,33.25,-95.34375,19.53125,0.0,0.0,0.0
1696287141463,-1.0029297,-0.4638672,0.40820312,87.875,-127.34375,-3.75,0.0,0.0,0.0
1696287141490,-1.4990234,0.23925781,0.5107422,110.6875,-184.9375,-3.125,0.0,0.0,0.0
1696287141523,-1.2666016,0.59375,0.70214844,92.625,-153.9375,29.84375,0.0,0.0,0.0
1696287141613,-1.6582031,0.39746094,0.5957031,-53.0625,-83.75,29.09375,0.0,0.0,0.0
1696287141614,-1.1357422,0.33789062,0.3642578,-69.46875,-3.5,-7.78125,0.0,0.0,0.0
1696287141640,-0.7705078,0.2529297,0.3330078,-60.6875,36.53125,-5.4375,0.0,0.0,0.0
1696287141702,-0.47558594,0.115234375,0.111328125,-57.375,74.09375,22.375,0.0,0.0,0.0
1696287141730,-0.31054688,0.025390625,0.01171875,-13.4375,99.34375,22.75,0.0,0.0,0.0
1696287141762,-0.45703125,-0.11035156,-0.15917969,10.90625,97.9375,4.1875,0.0,0.0,0.0
1696287141823,-0.76953125,-0.22460938,0.0146484375,183.9375,148.59375,-31.4375,0.0,0.0,0.0
1696287141852,-0.546875,0.22265625,1.2480469,138.65625,298.15625,-63.84375,-73.0625,-41.375,-173.125
1696287141879,-0.6425781,0.111328125,1.0029297,-98.78125,2.1875,-47.625,0.0,0.0,0.0
1696287141970,-0.7939453,0.5029297,0.01953125,-369.40625,-34.8125,-49.5625,0.0,0.0,0.0
1696287141971,-1.5800781,-0.27929688,-0.49804688,-88.6875,-67.03125,10.375,0.0,0.0,0.0
1696287142153,-2.0,-0.84472656,2.0,227.78125,-5.5,33.0625,0.0,0.0,0.0
1696287142155,-1.1591797,-0.0859375,-0.4140625,-335.40625,-55.75,-41.46875,0.0,0.0,0.0
1696287142157,-1.3476562,-0.16796875,-0.5498047,120.65625,-6.5,32.21875,0.0,0.0,0.0
1696287142159,-1.1992188,-0.5683594,1.0595703,147.1875,48.15625,7.5,0.0,0.0,0.0
1696287142184,-0.7714844,-0.068359375,0.072265625,-204.59375,75.125,-25.84375,0.0,0.0,0.0
1696287142210,-0.6533203,-0.16210938,0.18359375,54.5,37.9375,2.1875,0.0,0.0,0.0
1696287142242,-0.4501953,0.08203125,0.4580078,52.40625,5.125,6.46875,0.0,0.0,0.0
1696287142333,-0.578125,-0.13085938,0.18066406,-10.28125,-15.9375,18.65625,0.0,0.0,0.0
1696287142361,-0.6796875,-0.32226562,0.24121094,15.0,-19.25,20.5625,-74.875,-48.125,-185.875
1696287142363,-0.7470703,-0.19726562,0.4248047,-0.8125,-42.25,19.625,0.0,0.0,0.0
1696287142426,-1.0341797,-0.3623047,0.49804688,101.78125,-103.71875,11.28125,0.0,0.0,0.0
1696287142453,-1.6953125,-0.26464844,0.3046875,58.625,-171.53125,6.5625,0.0,0.0,0.0
1696287142483,-1.7431641,0.4345703,0.4921875,109.1875,-194.65625,15.71875,0.0,0.0,0.0
1696287142572,-1.3984375,0.73535156,0.61035156,-32.3125,-161.875,56.5625,0.0,0.0,0.0
1696287142574,-0.9550781,-0.0107421875,0.5908203,-31.5625,-51.15625,0.03125,0.0,0.0,0.0
1696287142603,-0.7783203,0.047851562,0.45214844,-4.34375,3.40625,2.0625,0.0,0.0,0.0
1696287142662,-0.5625,0.09472656,0.27148438,36.59375,53.09375,11.15625,0.0,0.0,0.0
1696287142691,-0.4794922,0.17675781,0.22167969,37.59375,94.15625,12.75,0.0,0.0,0.0
1696287142721,-0.3125,0.20117188,0.0107421875,19.34375,121.9375,-5.21875,0.0,0.0,0.0
1696287142782,-0.49804688,-0.087890625,0.076171875,118.75,152.75,-34.5,0.0,0.0,0.0
1696287142809,-0.77734375,-0.37890625,0.4453125,141.71875,123.8125,-49.46875,0.0,0.0,0.0
1696287142841,-1.0292969,-0.078125,0.4169922,50.40625,113.4375,-77.15625,-75.3125,-41.6875,-179.75
1696287142905,-0.95996094,0.4140625,1.1542969,-6.84375,95.03125,-52.6875,0.0,0.0,0.0
1696287142962,-0.75683594,0.5761719,0.5878906,-131.3125,-20.09375,-26.03125,0.0,0.0,0.0
1696287142963,-0.84375,1.0693359,0.35253906,-2.46875,4.1875,32.53125,0.0,0.0,0.0
1696287143023,-1.3642578,-0.4794922,-0.27148438,10.90625,20.84375,92.34375,0.0,0.0,0.0
1696287143052,-1.6835938,-0.9980469,0.20703125,-328.625,-33.15625,-31.4375,0.0,0.0,0.0
1696287143082,-1.4746094,-0.19042969,-0.08496094,-143.5,-16.1875,-62.5625,0.0,0.0,0.0
1696287143141,-0.9121094,-0.08300781,-0.34472656,118.9375,-1.25,-5.9375,0.0,0.0,0.0
1696287143172,-1.3320312,0.06738281,0.123046875,137.5625,37.34375,11.03125,0.0,0.0,0.0
1696287143202,-1.1396484,-0.11425781,0.34960938,106.75,36.71875,19.09375,0.0,0.0,0.0
1696287143261,-0.7402344,-0.15722656,0.16210938,35.8125,21.84375,23.96875,0.0,0.0,0.0
1696287143293,-0.47851562,-0.25195312,0.08300781,139.5,50.09375,34.09375,0.0,0.0,0.0
1696287143320,-0.56933594,-0.16796875,0.23242188,185.96875,42.28125,38.625,-77.375,-43.75,-185.875
1696287143383,-0.56640625,-0.23535156,0.2763672,113.3125,49.84375,29.15625,0.0,0.0,0.0
1696287143410,-1.0458984,-0.42578125,0.31933594,57.71875,38.3125,19.40625,0.0,0.0,0.0
1696287143440,-0.90625,-9.765625E-4,0.39648438,96.125,0.53125,11.9375,0.0,0.0,0.0
1696287143501,-1.2587891,0.16015625,0.5761719,198.78125,-68.625,43.375,0.0,0.0,0.0
1696287143560,-1.9023438,-0.21777344,0.048828125,95.1875,-154.3125,37.28125,0.0,0.0,0.0
1696287143590,-1.625,-0.056640625,-0.20214844,89.28125,-169.8125,-19.375,0.0,0.0,0.0
1696287143620,-1.8554688,-0.057617188,-0.026367188,-14.90625,-117.4375,-44.6875,0.0,0.0,0.0
1696287143660,-1.4365234,-0.15625,0.140625,-186.125,-74.84375,-59.15625,0.0,0.0,0.0
1696287143679,-1.0234375,-0.3046875,-0.53125,79.03125,21.71875,-80.9375,0.0,0.0,0.0
1696287143741,-0.9658203,-0.5439453,-0.2763672,297.40625,-8.3125,-97.125,0.0,0.0,0.0
1696287143769,-0.5341797,0.6982422,-0.22753906,278.0,-19.4375,-45.96875,0.0,0.0,0.0
1696287143802,-0.5810547,0.67285156,0.14746094,231.96875,37.34375,-37.0,0.0,0.0,0.0
1696287143861,-0.92089844,0.21972656,0.56152344,133.90625,16.21875,-17.78125,-72.125,-32.9375,-169.875
1696287143889,-0.7949219,0.15527344,0.8730469,207.5625,-48.28125,-3.90625,0.0,0.0,0.0
1696287143921,-0.6074219,-0.5048828,0.64453125,155.875,-62.40625,-20.34375,0.0,0.0,0.0
1696287144041,-0.5673828,-0.9736328,0.43847656,46.375,20.8125,-104.5,0.0,0.0,0.0
1696287144043,-1.4541016,-0.171875,0.13769531,30.375,15.96875,-63.3125,0.0,0.0,0.0
1696287144045,-1.0693359,-0.23339844,-1.5703125,-57.5625,-71.125,-104.8125,0.0,0.0,0.0
1696287144100,0.3876953,1.1591797,0.35546875,251.375,40.5,-60.5,0.0,0.0,0.0
1696287144131,-2.0,-0.09472656,-0.5253906,40.6875,-11.84375,65.46875,0.0,0.0,0.0
1696287144162,-1.4550781,-0.71191406,0.06640625,424.125,117.71875,-15.53125,0.0,0.0,0.0
1696287144221,-0.9707031,0.07714844,-0.13964844,31.125,36.78125,-50.375,0.0,0.0,0.0
1696287144250,-0.67871094,0.0068359375,0.009765625,38.25,57.65625,-46.59375,0.0,0.0,0.0
1696287144283,-0.75878906,0.10839844,0.099609375,54.375,77.875,-30.03125,0.0,0.0,0.0
1696287144343,-0.8564453,-0.032226562,0.1953125,98.9375,76.65625,-8.125,-77.125,-24.5625,-177.9375
1696287144369,-0.81152344,-0.17773438,0.5371094,60.78125,88.125,3.65625,0.0,0.0,0.0
1696287144435,-0.9277344,-0.4970703,0.31640625,7.6875,83.65625,-11.1875,0.0,0.0,0.0
1696287144461,-1.4765625,-0.20800781,0.39257812,162.46875,53.15625,10.59375,0.0,0.0,0.0
1696287144496,-1.6142578,-0.2265625,0.083984375,123.53125,-123.375,21.71875,0.0,0.0,0.0
1696287144522,-1.3701172,0.5498047,0.11816406,205.5,-142.09375,14.375,0.0,0.0,0.0
1696287144583,-1.421875,0.4013672,-0.059570312,-66.125,-170.59375,2.1875,0.0,0.0,0.0
1696287144611,-1.4775391,-0.15527344,-0.34765625,-118.25,-144.90625,11.03125,0.0,0.0,0.0
1696287144638,-1.5732422,-0.38964844,0.08105469,241.4375,-149.625,18.28125,0.0,0.0,0.0
1696287144699,-0.81347656,-0.3388672,-0.08203125,37.65625,-137.09375,-11.78125,0.0,0.0,0.0
1696287144733,-0.57910156,0.19433594,-0.030273438,16.71875,-111.21875,-5.375,0.0,0.0,0.0
1696287144759,-0.5048828,0.36132812,-0.08203125,68.90625,-51.96875,-30.84375,0.0,0.0,0.0
1696287144823,-0.12597656,0.2763672,0.12207031,62.53125,6.28125,-45.78125,0.0,0.0,0.0
1696287144849,-0.17675781,0.20605469,0.07714844,13.71875,60.71875,-27.0,-67.625,-16.75,-165.1875
1696287144880,-0.484375,-0.21777344,0.13085938,30.4375,100.15625,-11.90625,0.0,0.0,0.0
1696287144941,-1.0380859,-0.2705078,0.25195312,163.625,117.0,-49.28125,0.0,0.0,0.0
1696287144972,-0.9824219,0.125,0.68847656,184.625,64.625,-56.40625,0.0,0.0,0.0
1696287145001,-0.8779297,0.33007812,0.74902344,-44.4375,24.21875,-49.40625,0.0,0.0,0.0
1696287145091,-0.8964844,0.33203125,0.18359375,-123.6875,2.96875,-39.03125,0.0,0.0,0.0
1696287145125,-0.3125,0.4736328,0.24414062,20.75,2.90625,-17.21875,0.0,0.0,0.0
1696287145126,-1.5830078,-0.5292969,0.15625,187.53125,-0.9375,4.1875,0.0,0.0,0.0
1696287145182,-2.0,-0.86621094,2.0,-59.53125,49.0625,-37.75,0.0,0.0,0.0
1696287145211,-1.5351562,-0.19433594,-0.15332031,-271.0625,-46.65625,-69.53125,0.0,0.0,0.0
1696287145271,-0.99902344,-0.25,-0.5800781,86.03125,-36.21875,-10.9375,0.0,0.0,0.0
1696287145334,-1.4980469,-0.23046875,-0.42578125,155.5625,118.34375,-4.03125,0.0,0.0,0.0
1696287145391,-0.921875,0.001953125,0.32617188,8.84375,40.75,-28.65625,-79.0625,-20.5,-179.875
1696287145393,-0.5625,0.22949219,-0.18359375,-11.1875,45.75,-8.3125,0.0,0.0,0.0
1696287145424,-0.6357422,0.115234375,0.2861328,155.1875,29.78125,22.8125,0.0,0.0,0.0
1696287145482,-0.74121094,-0.1328125,0.3310547,-3.4375,18.125,21.53125,0.0,0.0,0.0
1696287145509,-0.54785156,-0.10839844,0.20800781,-73.4375,21.84375,-3.5625,0.0,0.0,0.0
1696287145545,-0.7451172,-0.029296875,0.3232422,-28.53125,-10.625,-3.875,0.0,0.0,0.0
1696287145634,-0.7832031,-0.10546875,0.234375,46.625,-14.25,11.59375,0.0,0.0,0.0
1696287145663,-0.8769531,0.03515625,0.4794922,-3.0,-49.34375,18.125,0.0,0.0,0.0
1696287145664,-1.0302734,0.06738281,0.5126953,-59.9375,-106.34375,29.46875,0.0,0.0,0.0
1696287145692,-1.7939453,0.13671875,0.14257812,-4.59375,-206.375,44.78125,0.0,0.0,0.0
1696287145721,-1.8320312,0.16601562,0.47070312,92.75,-238.0,58.03125,0.0,0.0,0.0
1696287145782,-1.3388672,0.34277344,0.33691406,-95.0,-149.6875,52.34375,0.0,0.0,0.0
1696287145843,-0.9873047,-0.15429688,0.58496094,-35.40625,-38.53125,-2.34375,0.0,0.0,0.0
1696287145870,-0.5253906,-0.17871094,0.2919922,-3.375,50.40625,-33.84375,-65.875,-14.6875,-164.875
1696287145903,-0.3544922,0.11816406,0.06347656,-48.96875,95.3125,-22.34375,0.0,0.0,0.0
1696287146060,-0.25976562,0.3154297,-0.068359375,-53.46875,147.8125,-15.03125,0.0,0.0,0.0
1696287146062,-0.40429688,-0.030273438,-0.15625,21.53125,143.28125,-18.375,0.0,0.0,0.0
1696287146065,-0.8730469,-0.20507812,0.09082031,171.0625,127.65625,-25.34375,0.0,0.0,0.0
1696287146068,-1.0175781,-0.30078125,1.2929688,227.46875,219.84375,-60.5,0.0,0.0,0.0
1696287146144,-0.58496094,0.19628906,0.80371094,-154.25,25.0,-63.125,0.0,0.0,0.0
1696287146146,-0.3310547,0.7998047,0.057617188,-80.09375,-28.53125,-36.875,0.0,0.0,0.0
1696287146203,-1.6699219,0.7236328,0.15136719,17.8125,-95.46875,79.75,0.0,0.0,0.0
1696287146207,-2.0,-1.4414062,0.5449219,-78.4375,-47.25,21.84375,0.0,0.0,0.0
1696287146262,-2.0,-0.57128906,0.060546875,-377.09375,-79.25,-33.875,0.0,0.0,0.0
1696287146291,-0.49902344,0.0068359375,-0.4111328,81.90625,-102.5,8.03125,0.0,0.0,0.0
1696287146320,-1.3984375,0.20996094,0.390625,311.03125,50.09375,38.125,-75.3125,-24.25,-171.5
1696287146414,-1.0146484,-0.06347656,0.01171875,-79.96875,20.375,-6.25,0.0,0.0,0.0
1696287146419,-1.0253906,-0.3671875,0.6455078,-49.28125,24.59375,-0.4375,0.0,0.0,0.0
1696287146441,-0.51171875,-0.109375,0.30859375,-89.8125,27.6875,-6.84375,0.0,0.0,0.0
1696287146504,-0.5498047,-0.140625,0.27734375,-16.0625,8.96875,9.5,0.0,0.0,0.0
1696287146530,-0.59765625,-0.013671875,0.30859375,17.4375,5.0625,17.5625,0.0,0.0,0.0
1696287146563,-0.55371094,-0.21484375,0.25976562,-8.625,-6.5,19.875,0.0,0.0,0.0
1696287146625,-0.6845703,-0.17578125,0.40527344,43.375,-31.5625,17.0,0.0,0.0,0.0
1696287146650,-1.0683594,-0.2265625,0.4609375,70.0625,-53.0625,7.8125,0.0,0.0,0.0
1696287146682,-1.8642578,-0.022460938,0.95214844,112.09375,-144.78125,4.25,0.0,0.0,0.0
1696287146780,-1.90625,0.77734375,0.6953125,47.65625,-201.5,60.84375,0.0,0.0,0.0
1696287146782,-1.4287109,0.421875,0.7060547,-22.34375,-162.1875,43.375,0.0,0.0,0.0
1696287146802,-0.66015625,-0.1640625,0.43554688,68.84375,-58.5,8.03125,0.0,0.0,0.0
1696287146860,-0.46679688,0.11816406,0.31152344,41.84375,32.21875,-21.375,-62.5625,-16.1875,-164.75
1696287146892,-0.4560547,0.21289062,0.038085938,22.8125,71.09375,-10.75,0.0,0.0,0.0
1696287146922,-0.3310547,0.30078125,-0.052734375,-9.28125,104.90625,-32.125,0.0,0.0,0.0
1696287146984,-0.16210938,0.08105469,-0.051757812,22.3125,149.59375,-59.71875,0.0,0.0,0.0
1696287147013,-0.60058594,-0.49804688,-0.01171875,169.46875,167.90625,-86.375,0.0,0.0,0.0
1696287147042,-1.0322266,-0.22949219,0.4580078,154.09375,170.09375,-116.46875,0.0,0.0,0.0
1696287147133,-0.8105469,0.5263672,0.5488281,-23.9375,96.71875,-87.59375,0.0,0.0,0.0
1696287147134,-1.1191406,0.6855469,0.91796875,86.46875,-39.25,-22.0625,0.0,0.0,0.0
1696287147160,-0.6699219,1.4052734,0.51953125,-158.40625,-52.875,-7.09375,0.0,0.0,0.0
1696287147312,-0.8154297,0.12011719,-0.7714844,-150.90625,-97.90625,106.90625,0.0,0.0,0.0
1696287147314,-1.8271484,-1.8632812,-0.3046875,-93.28125,-63.375,-20.875,0.0,0.0,0.0
1696287147315,-1.6611328,-0.2998047,0.083984375,-90.78125,-21.5,-52.125,0.0,0.0,0.0
1696287147340,-1.3183594,-0.21484375,-0.053710938,14.28125,29.03125,-3.90625,-76.1875,-25.4375,-176.75
1696287147371,-1.5683594,-0.064453125,0.32910156,111.3125,69.8125,-0.6875,0.0,0.0,0.0
1696287147435,-1.1240234,0.1484375,0.3173828,7.90625,73.96875,0.21875,0.0,0.0,0.0
1696287147460,-0.609375,-0.0625,0.111328125,68.28125,55.71875,25.8125,0.0,0.0,0.0
1696287147492,-0.5595703,-0.1328125,0.32226562,135.65625,44.25,33.25,0.0,0.0,0.0
1696287147555,-0.51660156,-0.021484375,0.38183594,-2.53125,24.15625,27.09375,0.0,0.0,0.0
1696287147585,-0.49804688,-0.265625,0.3720703,-74.1875,6.40625,16.84375,0.0,0.0,0.0
1696287147737,-0.5722656,-0.16699219,0.1875,-40.84375,-9.53125,-1.65625,0.0,0.0,0.0
1696287147739,-0.9824219,-0.3935547,0.2548828,-9.34375,-18.8125,-17.65625,0.0,0.0,0.0
1696287147740,-0.61816406,0.04296875,0.23535156,-27.46875,-33.21875,-27.65625,0.0,0.0,0.0
1696287147742,-0.52246094,-0.037109375,-0.20898438,55.96875,-33.40625,26.15625,0.0,0.0,0.0
1696287147761,-1.6123047,-0.60253906,1.3779297,403.25,-80.40625,56.9375,0.0,0.0,0.0
1696287147885,-1.609375,0.19140625,0.6298828,101.84375,-124.84375,11.59375,0.0,0.0,0.0
1696287147887,-1.5947266,0.16113281,0.3310547,105.15625,-142.15625,2.65625,-74.375,-17.6875,-184.6875
1696287147888,-1.3583984,0.12988281,0.37890625,156.0,-100.1875,-26.3125,0.0,0.0,0.0
1696287147942,-1.1025391,0.24023438,0.22460938,-7.71875,9.75,-67.8125,0.0,0.0,0.0
1696287147971,-0.9511719,-0.4013672,0.123046875,-26.3125,48.9375,-62.875,0.0,0.0,0.0
1696287147999,-0.5058594,0.24023438,0.016601562,69.3125,56.5625,-36.34375,0.0,0.0,0.0
1696287148062,-0.62597656,0.2421875,0.09082031,84.59375,71.15625,-19.0625,0.0,0.0,0.0
1696287148090,-0.38964844,0.24707031,0.111328125,115.15625,52.21875,-15.75,0.0,0.0,0.0
1696287148120,-0.33789062,0.017578125,0.16308594,144.15625,57.53125,-27.0,0.0,0.0,0.0
1696287148180,-0.5605469,0.11328125,0.703125,164.0,63.53125,-10.8125,0.0,0.0,0.0
1696287148243,-1.2236328,0.15332031,0.9707031,35.03125,-32.90625,-18.9375,0.0,0.0,0.0
1696287148270,-0.5859375,0.43847656,0.44335938,145.125,-59.9375,-16.0,0.0,0.0,0.0
1696287148301,-2.0,0.8388672,0.64453125,126.4375,-105.4375,74.6875,0.0,0.0,0.0
1696287148364,-2.0,-0.4033203,2.0,-187.46875,-90.46875,42.34375,-77.5625,-25.1875,-191.875
1696287148367,-1.8046875,-0.5576172,0.3671875,-156.375,-0.8125,-60.6875,0.0,0.0,0.0
1696287148422,-1.4853516,0.06738281,-0.2109375,-33.40625,79.5625,-17.96875,0.0,0.0,0.0
1696287148452,-1.6533203,-0.09472656,-0.020507812,-52.6875,112.96875,-26.875,0.0,0.0,0.0
1696287148481,-1.2255859,0.42382812,0.07324219,50.21875,83.40625,-28.03125,0.0,0.0,0.0
1696287148544,-0.8203125,0.111328125,0.17382812,123.46875,86.21875,11.40625,0.0,0.0,0.0
1696287148570,-0.4609375,-0.020507812,0.36132812,103.9375,78.71875,24.9375,0.0,0.0,0.0
1696287148603,-0.5371094,-0.46191406,0.18652344,51.4375,63.78125,14.3125,0.0,0.0,0.0
1696287148663,-0.5761719,-0.064453125,0.15722656,-3.625,54.78125,0.96875,0.0,0.0,0.0
1696287148692,-1.0332031,-0.19335938,0.36328125,-8.5,80.4375,5.34375,0.0,0.0,0.0
1696287148720,-1.2099609,-0.01953125,0.96191406,-106.28125,130.78125,-10.15625,0.0,0.0,0.0
1696287148816,-1.2939453,-0.31640625,0.20800781,-85.28125,-38.71875,34.21875,0.0,0.0,0.0
1696287148820,-1.6054688,-0.70410156,0.33789062,285.25,-86.75,42.03125,0.0,0.0,0.0
1696287148840,-1.5507812,-0.059570312,-0.028320312,89.46875,-190.8125,41.84375,-76.375,-25.0,-209.0
1696287148934,-1.0380859,-0.14453125,-0.11328125,330.90625,-159.75,26.71875,0.0,0.0,0.0
1696287148964,-1.2402344,-1.4345703,-0.02734375,112.15625,-144.59375,11.28125,0.0,0.0,0.0
1696287148968,-1.3955078,-0.390625,-0.28808594,13.65625,-171.84375,-17.53125,0.0,0.0,0.0
1696287148992,-0.89160156,0.046875,-0.41992188,224.15625,-71.25,-49.28125,0.0,0.0,0.0
1696287149116,-1.1142578,-0.46875,0.024414062,147.625,-28.40625,-119.53125,0.0,0.0,0.0
1696287149118,-0.8125,-0.09375,-0.3388672,263.15625,-35.96875,-89.0,0.0,0.0,0.0
1696287149119,-0.9296875,0.3720703,-0.19140625,247.59375,-15.6875,-92.0,0.0,0.0,0.0
1696287149173,-0.859375,0.6533203,0.08496094,174.84375,-3.1875,-61.40625,0.0,0.0,0.0
1696287149199,-0.8339844,0.18847656,0.23925781,94.21875,7.125,-79.59375,0.0,0.0,0.0
1696287149229,-0.7998047,0.00390625,0.6142578,139.375,-24.4375,-71.375,0.0,0.0,0.0
1696287149296,-0.67089844,-0.1484375,1.0673828,76.78125,-8.75,-61.21875,0.0,0.0,0.0
1696287149322,-0.60546875,-0.26757812,0.25878906,40.5625,-15.28125,-37.96875,-80.875,-43.3125,-181.5625
1696287149350,-0.47460938,-0.4580078,0.3125,68.46875,31.46875,-69.34375,0.0,0.0,0.0
1696287149412,-2.0,-0.3359375,0.57128906,-86.0625,11.34375,-47.5,0.0,0.0,0.0
1696287149442,-0.22753906,1.1347656,-0.055664062,25.8125,3.78125,-145.28125,0.0,0.0,0.0
1696287149471,-1.1826172,0.56640625,-0.1796875,-97.625,50.15625,52.71875,0.0,0.0,0.0
1696287149564,-1.2792969,0.2109375,-0.11816406,-84.0625,104.34375,32.21875,0.0,0.0,0.0
1696287149569,-1.0146484,-0.33496094,-0.044921875,-34.0625,42.78125,2.4375,0.0,0.0,0.0
1696287149592,-0.8876953,-0.6669922,0.11230469,129.6875,41.625,14.875,0.0,0.0,0.0
1696287149805,-0.83691406,-0.21679688,0.328125,134.3125,30.1875,1.625,0.0,0.0,0.0
1696287149833,-0.7705078,-0.05078125,0.3076172,27.09375,17.0,-8.4375,0.0,0.0,0.0
1696287149845,-0.62597656,0.07421875,0.4951172,11.03125,3.21875,-9.0,0.0,0.0,0.0
1696287149847,-0.94433594,-0.10644531,0.7753906,-13.5,-37.125,-0.3125,0.0,0.0,0.0
1696287149848,-0.51953125,0.111328125,0.07324219,-126.1875,-42.25,-27.78125,0.0,0.0,0.0
1696287149849,-0.33203125,-0.17089844,-0.20605469,65.84375,-69.71875,14.375,-77.375,-49.1875,-185.875
1696287149888,-0.8857422,-0.46191406,0.55371094,203.90625,-82.09375,23.1875,0.0,0.0,0.0
1696287149923,-0.92871094,-0.3544922,0.4609375,41.3125,-74.21875,-10.34375,0.0,0.0,0.0
1696287149950,-1.3144531,-0.203125,0.609375,97.46875,-190.75,11.28125,0.0,0.0,0.0
1696287150012,-1.8359375,0.27929688,0.20214844,155.3125,-189.03125,33.0625,0.0,0.0,0.0
1696287150042,-1.3623047,0.8720703,0.12890625,-30.90625,-80.59375,-0.875,0.0,0.0,0.0
1696287150103,-1.0263672,0.35351562,0.5517578,-50.84375,22.3125,-56.71875,0.0,0.0,0.0
1696287150131,-0.6533203,-0.03515625,0.19921875,-150.65625,82.625,-56.84375,0.0,0.0,0.0
1696287150163,-0.18066406,0.06640625,0.046875,-93.8125,125.46875,-11.0625,0.0,0.0,0.0
1696287150193,-0.22265625,0.0,0.020507812,39.96875,119.5,28.25,0.0,0.0,0.0
1696287150249,-1.2880859,-0.0078125,-0.029296875,238.875,123.8125,35.4375,0.0,0.0,0.0
1696287150279,-0.92285156,0.53808594,1.1816406,140.375,223.0625,-23.09375,0.0,0.0,0.0
1696287150374,-0.37890625,0.0,0.859375,-176.59375,5.96875,-25.28125,-78.125,-47.375,-178.6875
1696287150401,-1.1787109,0.041992188,0.23535156,-280.96875,-31.5,-18.8125,0.0,0.0,0.0
1696287150403,-2.0,-0.40625,0.40527344,-73.9375,32.875,-41.875,0.0,0.0,0.0
1696287150433,-1.9042969,-0.48242188,0.05859375,-78.375,-73.9375,-16.0,0.0,0.0,0.0
1696287150498,-1.1376953,-0.16015625,-0.25976562,62.71875,-45.78125,6.9375,0.0,0.0,0.0
1696287150522,-1.3193359,-0.23046875,0.5605469,95.5625,36.4375,0.03125,0.0,0.0,0.0
1696287150553,-0.9472656,0.059570312,0.18457031,-40.90625,31.84375,-10.625,0.0,0.0,0.0
1696287150644,-0.4765625,-0.12792969,0.02734375,30.875,53.09375,10.0625,0.0,0.0,0.0
1696287150646,-0.7363281,-0.2529297,0.87890625,-7.34375,25.75,7.8125,0.0,0.0,0.0
1696287150706,-0.6513672,0.107421875,0.28808594,-122.03125,-3.5625,-16.4375,0.0,0.0,0.0
1696287150731,-0.2578125,0.13769531,-0.10839844,-9.0625,-37.6875,15.1875,0.0,0.0,0.0
1696287150759,-0.4033203,-0.37695312,0.115234375,158.1875,-46.71875,40.09375,0.0,0.0,0.0
1696287150792,-0.88183594,-0.6152344,0.24023438,70.71875,-30.46875,-0.75,0.0,0.0,0.0
1696287150855,-1.3632812,0.09082031,0.90234375,68.59375,-113.90625,0.71875,-77.6875,-49.1875,-178.375
1696287150883,-2.0,-0.20117188,0.4638672,129.125,-203.125,25.8125,0.0,0.0,0.0
1696287150911,-1.5048828,0.28710938,0.21777344,145.5,-182.3125,44.59375,0.0,0.0,0.0
1696287150971,-1.0322266,0.4189453,0.5341797,-50.625,-23.28125,-12.15625,0.0,0.0,0.0
1696287151000,-1.0,-0.09375,0.4580078,-37.3125,53.875,-33.28125,0.0,0.0,0.0
1696287151032,-0.7470703,0.056640625,0.15820312,-34.6875,85.0625,-25.15625,0.0,0.0,0.0
1696287151094,-0.6816406,0.17480469,0.15625,-36.34375,116.9375,0.53125,0.0,0.0,0.0
1696287151121,-0.6230469,0.1875,-0.0078125,-14.0,146.90625,-16.0625,0.0,0.0,0.0
1696287151151,-0.5546875,-0.09375,-0.051757812,5.78125,117.46875,4.5625,0.0,0.0,0.0
1696287151212,-0.51171875,0.01953125,0.17382812,62.25,105.875,-18.875,0.0,0.0,0.0
1696287151239,-1.0517578,-0.111328125,0.66308594,229.78125,159.90625,-14.125,0.0,0.0,0.0
1696287151271,-0.44140625,0.515625,0.83984375,-139.65625,-94.625,-20.34375,0.0,0.0,0.0
1696287151334,-0.16699219,0.9160156,0.1640625,-261.90625,-30.53125,-15.75,-76.1875,-49.3125,-180.9375
1696287151362,-0.8251953,-0.24804688,-0.38378906,-149.3125,-17.90625,41.71875,0.0,0.0,0.0
1696287151390,-2.0,-0.77246094,0.16015625,106.25,26.78125,28.0625,0.0,0.0,0.0
1696287151485,-1.0273438,0.19433594,-0.5107422,-349.8125,-1.3125,-72.28125,0.0,0.0,0.0
1696287151486,-2.0,-0.86035156,0.12109375,107.59375,-49.75,6.875,0.0,0.0,0.0
1696287151514,-1.0810547,-0.072265625,9.765625E-4,-1.90625,19.03125,-12.34375,0.0,0.0,0.0
1696287151615,-1.2607422,-0.07910156,0.061523438,157.21875,35.5625,20.5625,0.0,0.0,0.0
1696287151617,-0.9785156,-0.15625,0.5263672,45.625,53.15625,4.8125,0.0,0.0,0.0
1696287151628,-0.77246094,0.060546875,0.30859375,-79.84375,50.09375,0.03125,0.0,0.0,0.0
1696287151691,-0.5419922,-0.04296875,0.3828125,-0.1875,2.5,17.1875,0.0,0.0,0.0
1696287151719,-0.42871094,-0.13085938,0.30371094,5.59375,-19.71875,20.90625,0.0,0.0,0.0
1696287151750,-0.4921875,-0.053710938,0.3046875,-20.59375,-28.59375,20.5,0.0,0.0,0.0
1696287151815,-0.60253906,-0.47265625,0.08886719,-11.0,-36.875,10.1875,0.0,0.0,0.0
1696287151856,-0.99316406,-0.48242188,0.48046875,45.75,-74.46875,-7.8125,-78.125,-49.1875,-184.25
1696287151869,-0.83203125,-0.13769531,0.296875,71.53125,-96.28125,-9.96875,0.0,0.0,0.0
1696287151934,-1.1796875,-0.061523438,0.5498047,95.5,-147.40625,-7.28125,0.0,0.0,0.0
1696287151963,-1.4941406,0.2763672,0.5605469,88.125,-119.21875,-4.71875,0.0,0.0,0.0
1696287151994,-1.5615234,0.4326172,0.40820312,-45.5,-56.84375,-11.78125,0.0,0.0,0.0
1696287152204,-1.3330078,0.032226562,0.54296875,-98.03125,49.3125,-80.09375,0.0,0.0,0.0
1696287152209,-0.7871094,0.1640625,0.29492188,-91.09375,49.0625,-37.6875,0.0,0.0,0.0
1696287152213,-0.4658203,0.3388672,0.22167969,-5.03125,57.0625,26.03125,0.0,0.0,0.0
1696287152214,-0.5107422,0.083984375,0.12402344,34.40625,54.5625,48.75,0.0,0.0,0.0
1696287152215,-0.6611328,0.06347656,-0.005859375,123.9375,111.625,57.0,0.0,0.0,0.0
1696287152229,-0.5371094,-0.2548828,0.26464844,164.21875,57.1875,32.15625,0.0,0.0,0.0
1696287152293,-0.40625,-0.1796875,0.4248047,140.71875,103.6875,-24.5,0.0,0.0,0.0
1696287152321,-0.74902344,-0.0126953125,1.6054688,-132.09375,79.21875,-26.1875,-79.1875,-47.8125,-179.75
1696287152353,-0.8984375,0.0107421875,-0.12109375,-298.78125,-32.5,-44.8125,0.0,0.0,0.0
1696287152413,-1.2177734,-0.14453125,-0.9658203,-171.875,-11.0625,-58.59375,0.0,0.0,0.0
1696287152441,-1.8222656,0.19140625,0.6484375,123.65625,-118.0,4.125,0.0,0.0,0.0
1696287152472,-1.6210938,-0.64746094,0.059570312,-72.03125,-35.0,-5.15625,0.0,0.0,0.0
1696287152567,-1.1455078,-0.19238281,0.13867188,152.75,-10.21875,20.0625,0.0,0.0,0.0
1696287152571,-1.1542969,-0.09472656,0.16894531,84.21875,72.75,6.46875,0.0,0.0,0.0
1696287152590,-0.9238281,0.0107421875,0.23046875,96.84375,88.84375,9.125,0.0,0.0,0.0
1696287152687,-0.64941406,-0.21386719,0.3359375,34.34375,87.09375,6.9375,0.0,0.0,0.0
1696287152691,-0.4951172,-0.119140625,0.21679688,28.5625,73.21875,18.53125,0.0,0.0,0.0
1696287152712,-0.53808594,-0.10839844,0.12011719,111.375,49.1875,29.90625,0.0,0.0,0.0
1696287152774,-0.6972656,-0.0029296875,0.31152344,60.65625,39.84375,18.65625,0.0,0.0,0.0
1696287152802,-0.94433594,-0.052734375,0.25878906,34.90625,22.3125,9.9375,0.0,0.0,0.0
1696287152828,-0.8339844,0.16796875,0.46191406,74.5625,5.34375,18.84375,-79.5,-45.5625,-186.1875
1696287152893,-1.0791016,0.31054688,1.0888672,64.0625,-44.5625,65.96875,0.0,0.0,0.0
1696287152921,-1.7783203,-0.47851562,0.15820312,75.78125,-150.46875,58.875,0.0,0.0,0.0
1696287153015,-1.7646484,-0.82421875,-0.14648438,199.375,-169.625,-23.6875,0.0,0.0,0.0
1696287153020,-2.0,-0.14160156,0.0126953125,37.15625,-154.4375,-73.375,0.0,0.0,0.0
1696287153074,-1.6982422,0.3173828,0.5292969,-213.9375,-58.0625,-69.09375,0.0,0.0,0.0
1696287153078,-0.98046875,0.2421875,-0.2783203,-72.09375,-35.59375,-93.65625,0.0,0.0,0.0
1696287153133,-0.9326172,-1.609375,0.26953125,386.71875,-52.25,-103.71875,0.0,0.0,0.0
1696287153161,-0.51953125,0.3486328,-0.40039062,270.4375,25.8125,-61.28125,0.0,0.0,0.0
1696287153191,-0.48632812,0.6064453,-0.20800781,267.125,44.46875,-42.375,0.0,0.0,0.0
1696287153252,-0.57910156,0.296875,0.45703125,204.9375,18.1875,-40.1875,0.0,0.0,0.0
1696287153283,-0.7910156,0.4013672,0.63671875,206.34375,-2.28125,-1.0,0.0,0.0,0.0
1696287153311,-0.7783203,0.03515625,0.5732422,188.09375,-63.3125,2.71875,0.0,0.0,0.0
1696287153370,-0.7792969,-0.4111328,0.48046875,105.8125,-32.125,-45.59375,-73.5,-28.9375,-163.875
1696287153399,-1.1435547,-0.62597656,0.88671875,-31.21875,13.0,-74.71875,0.0,0.0,0.0
1696287153432,-1.3183594,-0.37304688,-1.4560547,-42.5625,-99.625,-61.46875,0.0,0.0,0.0
1696287153553,0.16503906,1.6787109,0.4609375,111.1875,52.0,-29.5,0.0,0.0,0.0
1696287153556,-1.8115234,-0.33984375,-0.68066406,95.9375,-33.34375,94.96875,0.0,0.0,0.0
1696287153558,-1.3554688,-0.41601562,0.31445312,416.25,145.5625,-69.53125,0.0,0.0,0.0
1696287153645,-1.1376953,0.0859375,-0.07714844,41.3125,48.15625,-58.65625,0.0,0.0,0.0
1696287153671,-0.7421875,-0.016601562,-0.0146484375,17.0625,68.65625,-55.4375,0.0,0.0,0.0
1696287153730,-0.73535156,0.234375,0.115234375,114.4375,81.53125,-33.65625,0.0,0.0,0.0
1696287153763,-0.84472656,-0.12011719,0.053710938,76.53125,73.15625,-15.03125,0.0,0.0,0.0
1696287153766,-0.9326172,-0.23632812,0.12402344,62.78125,77.9375,-10.625,0.0,0.0,0.0
1696287153791,-1.0058594,-0.15136719,0.044921875,20.75,52.46875,-12.03125,0.0,0.0,0.0
1696287153850,-0.95996094,-0.08203125,0.23535156,84.03125,80.90625,-4.65625,-82.1875,-25.1875,-183.625
1696287153882,-0.9355469,-0.18164062,0.4482422,128.84375,94.03125,3.65625,0.0,0.0,0.0
1696287153909,-1.3525391,-0.22851562,0.46484375,104.84375,-33.53125,42.15625,0.0,0.0,0.0
1696287153970,-1.9501953,-0.62890625,0.015625,105.15625,-146.0625,42.96875,0.0,0.0,0.0
1696287154004,-1.4414062,0.56933594,-0.48339844,23.84375,-204.59375,2.65625,0.0,0.0,0.0
1696287154029,-1.2412109,0.38085938,-0.47851562,44.28125,-165.375,10.90625,0.0,0.0,0.0
1696287154091,-1.4824219,-0.25097656,0.2529297,77.875,-159.5,66.4375,0.0,0.0,0.0
1696287154121,-1.6308594,-0.50097656,-0.08691406,13.09375,-205.15625,63.28125,0.0,0.0,0.0
1696287154151,-1.0263672,-0.18066406,-0.14941406,24.09375,-111.78125,-2.625,0.0,0.0,0.0
1696287154209,-0.5048828,0.19042969,-0.07421875,80.90625,-81.5,-54.34375,0.0,0.0,0.0
1696287154269,-0.23339844,0.48046875,-0.044921875,79.75,-38.46875,-33.875,0.0,0.0,0.0
1696287154271,-0.22851562,0.36328125,0.18554688,38.875,31.0625,-43.03125,0.0,0.0,0.0
1696287154334,-0.453125,-0.057617188,0.2919922,-27.90625,84.625,-49.09375,0.0,0.0,0.0
1696287154361,-0.8876953,0.041015625,0.12402344,39.71875,79.5,-9.78125,-70.8125,-15.5625,-167.125
1696287154393,-1.0234375,-0.140625,0.20800781,175.59375,102.40625,-16.6875,0.0,0.0,0.0
1696287154453,-1.1132812,-0.005859375,0.56152344,-35.46875,61.875,-50.84375,0.0,0.0,0.0
1696287154482,-0.6767578,0.515625,0.34179688,-65.125,0.84375,-33.15625,0.0,0.0,0.0
1696287154510,-0.45214844,0.27929688,0.20507812,19.15625,-21.75,0.15625,0.0,0.0,0.0
1696287154573,-0.2919922,-0.09667969,0.38671875,112.21875,-8.5625,-17.09375,0.0,0.0,0.0
1696287154601,-0.5732422,-0.3642578,0.43164062,57.59375,16.34375,-16.625,0.0,0.0,0.0
1696287154631,-1.7236328,-0.40527344,-0.328125,-88.34375,-13.03125,-23.625,0.0,0.0,0.0
1696287154695,-2.0,0.5644531,2.0,262.25,15.0625,-15.75,0.0,0.0,0.0
1696287154723,-1.2421875,-0.2421875,-0.73046875,-228.21875,-98.15625,-41.21875,0.0,0.0,0.0
1696287154751,-1.5195312,-0.21386719,-0.5683594,160.03125,60.28125,-9.71875,0.0,0.0,0.0
1696287154815,-1.3691406,-0.31152344,0.8984375,112.90625,126.625,-9.0625,0.0,0.0,0.0
1696287154846,-0.8984375,-0.11621094,0.27441406,-83.5625,67.78125,-27.0625,-77.125,-22.75,-174.5
1696287154871,-0.7861328,0.046875,0.0625,63.34375,63.59375,3.34375,0.0,0.0,0.0
1696287154931,-0.6074219,0.26953125,0.5,145.25,50.59375,23.96875,0.0,0.0,0.0
1696287154961,-0.5439453,-0.17382812,0.2265625,-27.96875,30.375,27.21875,0.0,0.0,0.0
1696287154991,-0.3701172,-0.040039062,0.28710938,30.6875,1.5625,23.375,0.0,0.0,0.0
1696287155053,-0.7714844,-0.20898438,0.38671875,7.75,-9.71875,22.75,0.0,0.0,0.0
1696287155082,-0.8798828,-0.3984375,0.25683594,-94.9375,-21.0,-8.8125,0.0,0.0,0.0
1696287155111,-0.7421875,-0.0107421875,0.103515625,-36.9375,-20.59375,1.3125,0.0,0.0,0.0
1696287155172,-0.88671875,-0.17871094,0.5029297,101.375,-44.75,21.78125,0.0,0.0,0.0
1696287155262,-1.6044922,-0.20703125,0.5263672,48.9375,-110.25,24.65625,0.0,0.0,0.0
1696287155264,-2.0,0.47460938,0.31152344,106.5625,-188.0625,40.4375,0.0,0.0,0.0
1696287155291,-1.8544922,0.83203125,0.49609375,9.875,-175.625,48.15625,0.0,0.0,0.0
1696287155321,-1.0615234,0.12011719,0.2939453,-85.34375,-125.875,43.8125,0.0,0.0,0.0
1696287155351,-0.65722656,-0.25683594,0.33691406,14.8125,-13.5625,10.71875,-65.6875,-17.1875,-166.125
1696287155409,-0.5722656,0.07519531,0.16601562,-4.78125,35.375,-3.75,0.0,0.0,0.0
1696287155440,-0.46484375,0.16601562,0.07421875,-8.0625,81.28125,-11.71875,0.0,0.0,0.0
1696287155469,-0.24414062,0.19628906,-0.07324219,-40.40625,104.40625,-18.3125,0.0,0.0,0.0
1696287155533,-0.30859375,-0.033203125,-0.20117188,-17.09375,120.65625,-27.0625,0.0,0.0,0.0
1696287155560,-0.64453125,-0.17871094,0.053710938,108.25,108.6875,-59.53125,0.0,0.0,0.0
1696287155589,-0.68359375,-0.19335938,0.4453125,209.21875,197.625,-88.8125,0.0,0.0,0.0
1696287155682,-1.1806641,0.3173828,1.5058594,-51.34375,37.34375,-59.09375,0.0,0.0,0.0
1696287155683,-0.6542969,0.58496094,0.28027344,-229.03125,-9.90625,-26.1875,0.0,0.0,0.0
1696287155709,-1.3183594,1.2636719,0.6142578,4.375,-115.3125,43.4375,0.0,0.0,0.0
1696287155771,-1.5419922,-1.0351562,-0.4765625,-422.875,-47.25,50.09375,0.0,0.0,0.0
1696287155801,-2.0,-0.7441406,0.13574219,-153.09375,-74.0625,-45.59375,0.0,0.0,0.0
1696287155834,-1.0927734,-0.03515625,-0.3310547,45.09375,-14.90625,-4.28125,-74.5625,-27.4375,-174.5
1696287155894,-1.5966797,-0.20800781,0.42871094,124.375,144.46875,-0.3125,0.0,0.0,0.0
1696287155920,-1.2041016,0.16992188,0.09765625,-1.40625,75.71875,-17.40625,0.0,0.0,0.0
1696287155951,-0.75878906,0.20898438,0.123046875,120.40625,47.21875,12.375,0.0,0.0,0.0
1696287156044,-0.44726562,0.0390625,0.32226562,138.40625,25.5625,30.125,0.0,0.0,0.0
1696287156047,-0.46972656,-0.20898438,0.20800781,-38.09375,1.9375,30.4375,0.0,0.0,0.0
1696287156070,-0.37890625,-0.25,0.36035156,-60.4375,-23.28125,23.65625,0.0,0.0,0.0
1696287156132,-0.11230469,-0.026367188,-0.072265625,-119.59375,-25.96875,5.65625,0.0,0.0,0.0
1696287156167,-0.7128906,0.12207031,0.43847656,22.4375,-43.21875,18.0625,0.0,0.0,0.0
1696287156224,-0.7529297,-0.15917969,0.14453125,-129.65625,-35.96875,2.1875,0.0,0.0,0.0
1696287156253,-0.8886719,-0.5126953,0.37890625,43.375,-92.84375,8.21875,0.0,0.0,0.0
1696287156281,-1.828125,-0.64453125,0.8183594,100.03125,-166.59375,-12.53125,0.0,0.0,0.0
1696287156313,-2.0,0.8730469,0.6035156,51.0,-190.1875,11.28125,0.0,0.0,0.0
1696287156463,-1.5830078,0.72753906,0.79296875,-45.125,-122.03125,5.125,-68.25,-25.1875,-170.625
1696287156464,-1.1357422,-0.38964844,0.26953125,-7.59375,-24.96875,-1.53125,0.0,0.0,0.0
1696287156466,-0.9423828,-0.021484375,0.4326172,30.25,12.9375,-2.875,0.0,0.0,0.0
1696287156468,-0.796875,0.28125,0.22265625,69.25,56.25,5.65625,0.0,0.0,0.0
1696287156554,-0.5029297,0.47558594,0.18164062,3.46875,83.125,0.96875,0.0,0.0,0.0
1696287156555,-0.30664062,0.08105469,-0.05859375,41.1875,92.34375,0.21875,0.0,0.0,0.0
1696287156611,-0.4638672,-0.29492188,0.1875,108.0625,83.53125,-0.3125,0.0,0.0,0.0
1696287156640,-0.6230469,-0.4033203,0.23339844,114.25,74.5625,-39.375,0.0,0.0,0.0
1696287156669,-0.6953125,-0.091796875,0.18066406,107.65625,69.0,-92.90625,0.0,0.0,0.0
1696287156730,-0.8310547,0.35351562,0.95996094,-6.65625,209.875,-88.21875,0.0,0.0,0.0
1696287156760,-0.6591797,0.6533203,0.57421875,-177.03125,-14.59375,-49.21875,0.0,0.0,0.0
1696287156790,-0.6064453,0.6123047,-0.029296875,-126.34375,-49.21875,-6.125,0.0,0.0,0.0
1696287156851,-1.6894531,0.013671875,0.7675781,156.40625,-87.0625,75.375,-75.4375,-32.1875,-185.0
1696287156881,-2.0,-1.125,0.859375,-197.59375,-22.125,-3.25,0.0,0.0,0.0
1696287156912,-1.546875,-0.3564453,-0.14941406,-225.59375,-9.96875,-69.46875,0.0,0.0,0.0
1696287156976,-1.3125,-0.11230469,-0.51953125,81.09375,-24.375,14.5,0.0,0.0,0.0
1696287157036,-1.4814453,-0.3544922,0.54296875,184.5,85.0625,7.5,0.0,0.0,0.0
1696287157040,-1.0566406,0.19335938,0.1328125,29.09375,71.59375,-3.3125,0.0,0.0,0.0
1696287157094,-0.72558594,0.07519531,0.27441406,78.84375,44.65625,32.21875,0.0,0.0,0.0
1696287157121,-0.6308594,-0.23144531,0.21289062,81.40625,20.4375,44.59375,0.0,0.0,0.0
1696287157150,-0.55859375,-0.17285156,0.390625,37.9375,36.1875,20.4375,0.0,0.0,0.0
1696287157275,-0.44628906,0.0390625,0.5341797,-61.96875,23.0625,5.90625,0.0,0.0,0.0
1696287157279,-0.24804688,-0.24707031,-0.02734375,-26.125,-18.6875,13.71875,0.0,0.0,0.0
1696287157280,-0.93652344,-0.49414062,0.57714844,-1.59375,-8.9375,-3.875,0.0,0.0,0.0
1696287157330,-0.8925781,-0.064453125,-0.053710938,-155.90625,-4.90625,-40.53125,0.0,0.0,0.0
1696287157361,-0.546875,0.140625,-0.18945312,96.46875,-60.9375,18.65625,-78.3125,-32.9375,-190.5625
1696287157392,-1.0546875,0.11816406,0.8417969,362.46875,-42.75,59.1875,0.0,0.0,0.0
1696287157422,-1.5244141,-0.44628906,0.12792969,-119.8125,-95.0,7.6875,0.0,0.0,0.0
1696287157485,-1.7568359,-0.21972656,0.33007812,140.25,-157.84375,6.8125,0.0,0.0,0.0
1696287157545,-1.8710938,0.08886719,0.515625,169.84375,-142.34375,12.1875,0.0,0.0,0.0
1696287157571,-1.3046875,0.42382812,0.33691406,-0.875,-56.53125,-17.03125,0.0,0.0,0.0
1696287157599,-1.0908203,-0.14941406,0.36816406,30.1875,-3.3125,-22.125,0.0,0.0,0.0
1696287157633,-0.72265625,0.015625,-0.009765625,26.0,31.28125,-26.3125,0.0,0.0,0.0
1696287157660,-0.51171875,0.30664062,0.07519531,32.8125,52.90625,-25.53125,0.0,0.0,0.0
1696287157726,-0.39453125,0.2548828,0.0126953125,11.15625,79.21875,-20.15625,0.0,0.0,0.0
1696287157753,-0.36523438,0.18066406,0.16113281,115.53125,70.125,-9.84375,0.0,0.0,0.0
1696287157780,-0.5361328,-0.068359375,0.52734375,175.40625,76.34375,-13.125,0.0,0.0,0.0
1696287157843,-0.9042969,0.4404297,0.96972656,-3.90625,46.3125,-27.1875,-80.5625,-32.0625,-194.875
1696287157871,-0.79589844,0.037109375,0.66015625,-78.375,-70.15625,13.96875,0.0,0.0,0.0
1696287157901,0.26367188,0.17382812,0.4091797,151.59375,-90.21875,-21.5,0.0,0.0,0.0
1696287157961,-2.0,-0.55371094,1.7177734,113.75,-109.09375,-3.1875,0.0,0.0,0.0
1696287157989,-2.0,2.0,2.0,-173.0,-62.46875,0.34375,0.0,0.0,0.0
1696287158021,-1.1162109,-0.36132812,-0.0146484375,12.5625,-12.65625,-5.5,0.0,0.0,0.0
1696287158084,-1.5898438,-0.4140625,-0.6123047,25.6875,54.90625,7.125,0.0,0.0,0.0
1696287158111,-1.6005859,-0.01953125,0.7519531,-10.625,98.0,-49.09375,0.0,0.0,0.0
1696287158142,-1.1816406,0.21972656,-0.06347656,15.96875,98.8125,-57.09375,0.0,0.0,0.0
1696287158206,-0.83691406,-0.08496094,0.0703125,94.15625,83.40625,-38.40625,0.0,0.0,0.0
1696287158234,-0.62109375,0.0068359375,0.1171875,65.53125,114.5,-37.6875,0.0,0.0,0.0
1696287158262,-0.5205078,0.07128906,0.296875,146.78125,93.5,-31.03125,0.0,0.0,0.0
1696287158325,-0.6435547,0.0234375,0.26464844,-42.96875,53.9375,-23.5,0.0,0.0,0.0
1696287158352,-0.76171875,-0.07910156,0.033203125,-124.15625,55.59375,-14.71875,-79.0625,-39.4375,-210.5
1696287158384,-0.9003906,-0.30273438,0.12402344,-143.6875,125.59375,-1.1875,0.0,0.0,0.0
1696287158448,-1.3818359,-0.4873047,-0.033203125,-11.1875,80.90625,15.625,0.0,0.0,0.0
1696287158471,-1.3535156,-0.3857422,0.4892578,133.28125,102.34375,-4.28125,0.0,0.0,0.0
1696287158502,-1.4941406,-0.64941406,0.1171875,-48.96875,-65.03125,15.1875,0.0,0.0,0.0
1696287158563,-1.6699219,-0.18261719,-0.2861328,-75.03125,-33.15625,-28.34375,0.0,0.0,0.0
1696287158589,-1.1035156,0.42578125,0.3955078,280.375,-111.21875,-2.28125,0.0,0.0,0.0
1696287158627,-1.5273438,0.578125,-0.11621094,-155.15625,-230.1875,56.75,0.0,0.0,0.0
1696287158683,-1.3544922,0.5078125,-0.61035156,-32.0,-173.46875,37.875,0.0,0.0,0.0
1696287158712,-1.2421875,0.052734375,0.14648438,23.0,-102.25,37.09375,0.0,0.0,0.0
1696287158740,-0.88964844,0.055664062,-0.46777344,23.0625,-176.46875,84.03125,0.0,0.0,0.0
1696287158803,-0.8574219,-0.056640625,0.11230469,62.3125,-160.96875,71.34375,0.0,0.0,0.0
1696287158830,-0.5136719,0.27246094,-0.12207031,35.4375,-135.5625,63.40625,-82.8125,-24.5625,-190.375
1696287158861,-0.16699219,0.15039062,0.015625,31.28125,-57.625,33.84375,0.0,0.0,0.0
1696287158920,-0.33203125,-0.08984375,0.12011719,25.6875,29.03125,-2.09375,0.0,0.0,0.0
1696287158951,-0.27246094,-0.09277344,0.38183594,-8.0625,78.21875,-45.65625,0.0,0.0,0.0
1696287158983,-0.5175781,-0.16210938,0.7529297,-8.375,132.96875,-108.0625,0.0,0.0,0.0
1696287159041,-2.0,0.25,2.0,-99.875,101.84375,-78.25,0.0,0.0,0.0
1696287159071,-0.6777344,1.0712891,0.08496094,124.75,-146.6875,32.53125,0.0,0.0,0.0
1696287159102,-1.8261719,0.98339844,0.51171875,93.1875,-6.71875,50.9375,0.0,0.0,0.0
1696287159166,-0.028320312,-0.15136719,-0.33007812,-132.21875,54.4375,0.65625,0.0,0.0,0.0
1696287159191,-1.3388672,-0.091796875,-0.55859375,-224.0,58.59375,-3.875,0.0,0.0,0.0
1696287159222,-1.4814453,0.0078125,-0.21484375,-54.15625,138.96875,8.28125,0.0,0.0,0.0
1696287159283,-1.0839844,-0.13867188,0.009765625,-96.5625,120.09375,-11.5,0.0,0.0,0.0
1696287159311,-0.7607422,0.0087890625,0.3203125,-208.4375,133.15625,-3.0625,0.0,0.0,0.0
1696287159341,-0.88378906,-0.4638672,0.028320312,-160.28125,74.5,-6.65625,-82.9375,-23.6875,-200.875
1696287159402,-0.85546875,-0.31933594,-0.03125,-135.625,65.34375,-17.15625,0.0,0.0,0.0
1696287159431,-0.8964844,-0.123046875,0.083984375,-151.3125,65.09375,-21.8125,0.0,0.0,0.0
1696287159459,-0.9199219,-0.08300781,0.087890625,-81.3125,36.59375,-2.28125,0.0,0.0,0.0
1696287159521,-1.0,-0.18261719,0.26171875,4.9375,81.53125,13.71875,0.0,0.0,0.0
1696287159550,-0.99121094,-0.13378906,0.3828125,-105.96875,101.4375,5.0,0.0,0.0,0.0
1696287159580,-1.0107422,-0.3076172,0.19921875,-23.15625,-1.71875,14.28125,0.0,0.0,0.0
1696287159641,-1.2412109,-0.5175781,0.040039062,-20.28125,-51.15625,-5.25,0.0,0.0,0.0
1696287159673,-1.3408203,0.15136719,0.34179688,-3.75,-4.28125,-35.90625,0.0,0.0,0.0
1696287159700,-1.5634766,-0.6455078,0.29882812,-69.46875,-65.9375,-8.3125,0.0,0.0,0.0
1696287159765,-1.2871094,0.32617188,-0.23339844,3.28125,-231.9375,-15.625,0.0,0.0,0.0
1696287159823,-1.4541016,0.67089844,-0.21777344,14.75,-191.0,24.59375,0.0,0.0,0.0
1696287159825,-1.4160156,0.29296875,0.1640625,3.28125,-133.1875,72.6875,-82.8125,-20.6875,-188.0
1696287159881,-1.1660156,-0.6347656,0.037109375,58.75,-154.96875,87.5,0.0,0.0,0.0
1696287159913,-0.6767578,-0.40039062,-0.3310547,16.28125,-113.0625,39.09375,0.0,0.0,0.0
1696287159943,-0.32421875,0.0087890625,-0.057617188,105.6875,-103.96875,24.40625,0.0,0.0,0.0
