# Sensor type: Thingy
# Activity type: Ascending stairs
# Activity subtype: Normal
# Subject id: s2094833
# Notes: 
timestamp,accel_x,accel_y,accel_z,gyro_x,gyro_y,gyro_z,mag_x,mag_y,mag_z
1696286830512,-0.36816406,0.3544922,0.7861328,-26.375,18.78125,-36.03125,0.0,0.0,0.0
1696286830515,-0.3935547,0.36523438,0.73046875,-24.5,27.625,-40.40625,0.0,0.0,0.0
1696286830540,-0.43945312,0.4560547,0.7763672,-32.78125,43.875,-59.84375,0.0,0.0,0.0
1696286830629,-0.49414062,0.53515625,0.61328125,-76.0625,72.875,-71.5,0.0,0.0,0.0
1696286830631,-1.2265625,0.69140625,0.91015625,9.6875,57.53125,-10.03125,0.0,0.0,0.0
1696286830660,-1.0947266,0.13476562,0.12402344,-37.6875,96.78125,-48.59375,0.0,0.0,0.0
1696286830721,-0.44335938,0.7558594,0.72265625,-11.71875,92.15625,-71.5,0.0,0.0,0.0
1696286830753,-0.8984375,0.0703125,0.27441406,-127.75,138.59375,-38.46875,0.0,0.0,0.0
1696286830780,-1.0976562,0.05859375,0.34277344,-65.6875,102.71875,-37.3125,0.0,0.0,0.0
1696286830842,-0.7783203,0.2265625,0.3232422,-53.71875,108.125,-30.09375,-65.375,-17.9375,-169.5625
1696286830870,-0.86035156,0.21289062,0.33789062,-100.125,116.5625,-15.15625,0.0,0.0,0.0
1696286830903,-0.9394531,0.080078125,0.16894531,-142.84375,134.875,-1.96875,0.0,0.0,0.0
1696286830960,-0.8310547,-0.2265625,-0.0048828125,-11.375,116.9375,42.65625,0.0,0.0,0.0
1696286830994,-1.3066406,-0.46191406,0.54003906,191.21875,61.75,-12.46875,0.0,0.0,0.0
1696286831020,-0.9472656,-0.18652344,0.30664062,78.90625,42.46875,-66.3125,0.0,0.0,0.0
1696286831111,-0.7792969,0.31835938,0.3203125,-70.3125,78.40625,-88.75,0.0,0.0,0.0
1696286831114,-0.9033203,0.25976562,0.25585938,16.34375,13.71875,-35.90625,0.0,0.0,0.0
1696286831140,-0.8964844,-0.125,0.28320312,87.03125,-4.96875,0.21875,0.0,0.0,0.0
1696286831294,-1.0615234,-0.2919922,0.28808594,4.8125,12.25,4.0,0.0,0.0,0.0
1696286831298,-1.2695312,-0.059570312,-0.025390625,-132.15625,23.84375,-6.375,0.0,0.0,0.0
1696286831300,-1.2363281,0.16015625,-0.009765625,-170.25,55.78125,-9.53125,0.0,0.0,0.0
1696286831303,-1.7099609,0.020507812,-0.08300781,-116.96875,35.25,18.1875,0.0,0.0,0.0
1696286831353,-1.4746094,-0.064453125,-0.083984375,5.84375,-32.125,37.59375,-74.125,-25.625,-188.3125
1696286831382,-1.0253906,-0.13867188,9.765625E-4,122.71875,-45.78125,33.90625,0.0,0.0,0.0
1696286831442,-1.1064453,0.71972656,1.4580078,208.3125,-184.9375,77.3125,0.0,0.0,0.0
1696286831469,-1.1855469,0.23046875,0.095703125,-301.96875,-136.78125,68.53125,0.0,0.0,0.0
1696286831502,-1.1494141,0.0625,-0.8251953,-154.625,-195.5,-25.21875,0.0,0.0,0.0
1696286831795,-0.78808594,0.048828125,-0.04296875,304.96875,-199.59375,76.28125,0.0,0.0,0.0
1696286831798,-0.9785156,0.038085938,0.52441406,105.875,-215.84375,85.0625,0.0,0.0,0.0
1696286831800,-0.6953125,0.18359375,0.06542969,68.03125,-174.21875,81.59375,0.0,0.0,0.0
1696286831801,-0.2705078,0.22851562,0.060546875,69.5,-161.8125,28.84375,0.0,0.0,0.0
1696286831803,-0.19433594,0.25390625,0.31933594,62.3125,-133.8125,36.96875,0.0,0.0,0.0
1696286831804,-0.16992188,0.19628906,0.3154297,47.40625,-67.09375,10.71875,0.0,0.0,0.0
1696286831806,-0.22070312,0.3017578,0.60839844,31.46875,-20.15625,-16.0,0.0,0.0,0.0
1696286831831,-0.3017578,0.5390625,0.73535156,-28.65625,24.09375,-37.375,0.0,0.0,0.0
1696286831860,-0.5253906,0.45996094,1.3417969,-26.375,20.90625,-43.21875,-59.125,-23.8125,-170.125
1696286831954,-0.3203125,0.32714844,0.044921875,51.1875,67.4375,-28.53125,0.0,0.0,0.0
1696286831956,-0.9892578,0.49609375,0.6152344,33.0,50.78125,-36.5,0.0,0.0,0.0
1696286831983,-0.74902344,0.35351562,0.65527344,-89.5,101.3125,-70.3125,0.0,0.0,0.0
1696286832071,-0.9941406,0.32910156,0.48632812,-80.8125,128.59375,-65.625,0.0,0.0,0.0
1696286832074,-1.0166016,0.016601562,0.4140625,-77.09375,115.9375,-56.59375,0.0,0.0,0.0
1696286832135,-1.1015625,0.1796875,0.3876953,-61.46875,111.1875,-40.1875,0.0,0.0,0.0
1696286832138,-0.9785156,0.12011719,0.2421875,-67.09375,128.21875,-39.625,0.0,0.0,0.0
1696286832197,-0.99609375,0.1484375,0.16601562,-31.75,137.25,-6.53125,0.0,0.0,0.0
1696286832220,-1.0742188,-0.14550781,0.0703125,19.21875,109.65625,12.25,0.0,0.0,0.0
1696286832284,-1.1201172,-0.33496094,0.08105469,156.71875,68.28125,14.875,0.0,0.0,0.0
1696286832342,-0.8017578,-0.018554688,0.38378906,142.6875,69.25,-57.75,0.0,0.0,0.0
1696286832345,-0.57128906,-0.029296875,0.28808594,-41.59375,72.625,-78.5625,-70.375,-37.9375,-190.875
1696286832369,-0.77246094,0.2529297,0.36914062,-23.34375,57.53125,-56.40625,0.0,0.0,0.0
1696286832436,-0.91503906,-0.01953125,0.26367188,33.6875,21.21875,-9.21875,0.0,0.0,0.0
1696286832460,-1.3027344,-0.026367188,0.25683594,52.46875,29.9375,2.3125,0.0,0.0,0.0
1696286832493,-1.1962891,-0.14160156,0.22363281,-22.84375,31.96875,6.9375,0.0,0.0,0.0
1696286832614,-1.3134766,-0.14550781,0.0107421875,-107.625,61.9375,0.28125,0.0,0.0,0.0
1696286832641,-1.6328125,-0.24804688,0.06347656,-51.15625,48.375,12.625,0.0,0.0,0.0
1696286832645,-1.4970703,0.059570312,0.013671875,-17.34375,-10.625,29.84375,0.0,0.0,0.0
1696286832671,-1.125,0.15234375,0.2841797,-7.875,-88.28125,23.125,0.0,0.0,0.0
1696286832701,-0.94921875,0.40429688,0.54003906,199.4375,-151.3125,76.28125,0.0,0.0,0.0
1696286832730,-1.5595703,-0.061523438,0.07128906,-208.21875,-98.65625,70.71875,0.0,0.0,0.0
1696286832794,-1.3115234,0.17675781,-0.71777344,-93.46875,-137.78125,14.21875,0.0,0.0,0.0
1696286832854,-1.3261719,-0.13574219,0.26464844,167.96875,-210.84375,41.625,0.0,0.0,0.0
1696286832880,-0.93359375,0.049804688,0.17089844,30.6875,-198.5,66.625,-75.4375,-42.25,-177.5
1696286832911,-0.5449219,0.20019531,-0.020507812,78.0625,-186.84375,65.09375,0.0,0.0,0.0
1696286832944,-0.2421875,0.10058594,0.045898438,102.71875,-161.03125,57.34375,0.0,0.0,0.0
1696286832971,-0.15722656,0.032226562,0.087890625,72.125,-113.28125,47.59375,0.0,0.0,0.0
1696286833060,-0.16992188,0.31152344,0.2578125,67.625,-57.15625,25.25,0.0,0.0,0.0
1696286833062,-0.35058594,0.42578125,0.5859375,1.8125,-22.53125,-14.90625,0.0,0.0,0.0
1696286833091,-0.26757812,0.3720703,0.67089844,-48.96875,33.5625,-44.03125,0.0,0.0,0.0
1696286833154,-0.6855469,0.77734375,0.67578125,-72.9375,36.125,-26.4375,0.0,0.0,0.0
1696286833181,-1.4228516,0.0048828125,1.9580078,-18.8125,61.625,-74.40625,0.0,0.0,0.0
1696286833211,-0.9658203,0.5332031,0.75683594,-23.4375,80.5,-62.09375,0.0,0.0,0.0
1696286833273,-0.5654297,0.37695312,0.3623047,-67.75,120.03125,-63.25,0.0,0.0,0.0
1696286833299,-1.0556641,0.013671875,0.31640625,-90.40625,141.78125,-59.9375,0.0,0.0,0.0
1696286833362,-1.3369141,0.076171875,0.2734375,-96.75,130.90625,-43.53125,-73.5,-46.0,-170.4375
1696286833388,-0.9404297,0.099609375,0.3486328,-108.21875,119.75,-36.03125,0.0,0.0,0.0
1696286833420,-0.8232422,0.14746094,0.103515625,-122.625,163.75,8.46875,0.0,0.0,0.0
1696286833453,-0.9453125,0.020507812,0.022460938,-35.53125,148.1875,23.25,0.0,0.0,0.0
1696286833515,-0.97265625,-0.359375,-0.017578125,0.03125,128.53125,25.875,0.0,0.0,0.0
1696286833571,-0.8486328,-0.36328125,0.055664062,128.59375,31.71875,-31.9375,0.0,0.0,0.0
1696286833600,-0.60546875,-0.18847656,0.35839844,95.0625,40.6875,-42.5,0.0,0.0,0.0
1696286833636,-0.80566406,-0.20019531,0.22363281,-51.78125,33.3125,-74.65625,0.0,0.0,0.0
1696286833694,-0.9453125,0.35253906,0.23828125,-95.90625,18.0,-47.25,0.0,0.0,0.0
1696286833719,-1.2431641,-0.0859375,-0.037109375,-8.875,2.375,5.78125,0.0,0.0,0.0
1696286833751,-1.2890625,-0.19335938,0.50683594,70.0,97.8125,-13.1875,0.0,0.0,0.0
1696286833785,-1.3300781,0.1171875,0.06738281,-223.28125,37.65625,-23.875,0.0,0.0,0.0
1696286833810,-1.8505859,-0.020507812,-0.22167969,-266.8125,73.34375,4.0625,0.0,0.0,0.0
1696286833873,-1.328125,-0.00390625,-0.18359375,45.75,-70.03125,49.96875,-74.125,-52.0,-204.1875
1696286833936,-1.1318359,-0.05078125,0.06933594,140.78125,-63.1875,60.46875,0.0,0.0,0.0
1696286833963,-1.2587891,0.3671875,0.7919922,99.09375,-158.09375,72.5625,0.0,0.0,0.0
1696286834023,-1.5410156,0.41601562,0.28222656,-229.09375,-171.03125,72.0625,0.0,0.0,0.0
1696286834202,-1.6298828,-0.18457031,-0.8125,-297.25,-162.25,14.375,0.0,0.0,0.0
1696286834205,-0.69433594,-0.12011719,-0.37597656,233.25,-180.4375,87.625,0.0,0.0,0.0
1696286834206,-0.9667969,0.2705078,0.5205078,129.125,-264.40625,113.9375,0.0,0.0,0.0
1696286834208,-0.63183594,0.171875,0.01171875,112.65625,-214.75,95.4375,0.0,0.0,0.0
1696286834210,-0.14941406,0.125,0.16113281,108.5,-188.5,72.125,0.0,0.0,0.0
1696286834229,-0.2919922,0.15429688,0.20800781,67.0,-106.875,49.25,0.0,0.0,0.0
1696286834263,-0.10058594,0.5283203,0.37597656,23.0625,-53.3125,37.65625,0.0,0.0,0.0
1696286834289,-0.14746094,0.43164062,0.4404297,-21.75,-0.625,19.15625,0.0,0.0,0.0
1696286834382,-0.15136719,0.40625,0.7988281,-71.84375,22.5625,-1.46875,-64.9375,-28.625,-149.875
1696286834412,-0.29492188,0.3310547,1.0371094,-56.15625,50.59375,-27.71875,0.0,0.0,0.0
1696286834416,-0.18847656,0.5498047,0.65527344,-40.71875,71.03125,-59.65625,0.0,0.0,0.0
1696286834502,-1.3945312,0.0625,1.4912109,82.9375,27.21875,-66.0,0.0,0.0,0.0
1696286834534,-0.34179688,1.0800781,0.7441406,-34.6875,111.0625,-54.03125,0.0,0.0,0.0
1696286834591,-0.7294922,0.40625,0.4189453,-138.0625,147.75,-52.125,0.0,0.0,0.0
1696286834619,-1.1455078,0.37890625,0.20019531,-174.15625,161.59375,-1.46875,0.0,0.0,0.0
1696286834622,-0.8486328,0.3154297,0.29101562,-167.375,139.4375,-19.25,0.0,0.0,0.0
1696286834649,-0.93652344,0.20800781,0.107421875,-171.40625,171.90625,-4.15625,0.0,0.0,0.0
1696286834713,-1.0820312,-0.055664062,0.31347656,-97.0,139.75,-2.21875,0.0,0.0,0.0
1696286834738,-0.8964844,0.11328125,0.19628906,-124.40625,159.65625,15.84375,0.0,0.0,0.0
1696286834770,-0.9111328,-0.15332031,0.25195312,-150.71875,87.9375,9.8125,0.0,0.0,0.0
1696286834834,-0.9658203,-0.29101562,0.036132812,-18.375,173.25,-21.0625,0.0,0.0,0.0
1696286834860,-0.8515625,-0.20703125,0.009765625,-65.75,43.8125,-31.15625,-81.75,-47.8125,-196.25
1696286834892,-0.90722656,-0.026367188,0.10546875,-71.78125,43.25,-29.96875,0.0,0.0,0.0
1696286834952,-1.015625,0.01171875,0.30664062,-96.8125,91.0625,-5.5,0.0,0.0,0.0
1696286834980,-0.9248047,-0.109375,0.09765625,-107.25,15.4375,7.8125,0.0,0.0,0.0
1696286835009,-0.9013672,-0.15527344,0.08496094,-118.3125,21.09375,4.8125,0.0,0.0,0.0
1696286835101,-1.0166016,-0.1875,0.07324219,-39.375,25.8125,16.53125,0.0,0.0,0.0
1696286835130,-1.0488281,-0.13476562,0.103515625,-105.53125,66.15625,-9.0625,0.0,0.0,0.0
1696286835189,-1.1044922,-0.02734375,0.30371094,-140.6875,26.84375,-13.9375,0.0,0.0,0.0
1696286835220,-1.5400391,-0.26660156,-0.17089844,-93.53125,-55.5,-17.40625,0.0,0.0,0.0
1696286835251,-1.3554688,0.56152344,0.36328125,-140.53125,-24.625,-30.15625,0.0,0.0,0.0
1696286835310,-1.2177734,0.6699219,0.15820312,-159.0,-146.5,6.5625,0.0,0.0,0.0
1696286835341,-1.1875,0.671875,-0.20898438,-251.59375,-152.65625,28.96875,0.0,0.0,0.0
1696286835342,-1.1054688,0.14550781,-0.6816406,-23.4375,-187.03125,57.125,-81.0,-31.0,-198.375
1696286835371,-1.1074219,0.029296875,0.3330078,164.90625,-188.0,97.53125,0.0,0.0,0.0
1696286835583,-0.7998047,0.026367188,-0.08691406,2.59375,-134.125,91.65625,0.0,0.0,0.0
1696286835585,-0.5830078,0.23730469,0.11035156,-86.75,-52.9375,65.78125,0.0,0.0,0.0
1696286835586,-0.54589844,0.06347656,0.123046875,-45.59375,0.90625,25.75,0.0,0.0,0.0
1696286835587,-0.45507812,0.16308594,0.14550781,-59.9375,52.84375,16.09375,0.0,0.0,0.0
1696286835589,-0.5673828,0.0859375,0.16308594,-79.84375,84.28125,7.25,0.0,0.0,0.0
1696286835610,-0.7792969,-0.03515625,0.3779297,-137.90625,101.71875,-34.1875,0.0,0.0,0.0
1696286835675,-1.203125,-0.15039062,1.0175781,-160.53125,99.03125,-49.75,0.0,0.0,0.0
1696286835702,-1.4277344,-0.56152344,1.0888672,-47.125,45.40625,-25.90625,0.0,0.0,0.0
1696286835731,-1.1708984,0.123046875,0.78808594,-90.65625,-12.59375,-30.71875,0.0,0.0,0.0
1696286835791,-0.9238281,0.4609375,0.032226562,105.34375,1.21875,-21.0625,0.0,0.0,0.0
1696286835820,-1.4697266,0.36035156,-0.16503906,-111.15625,-20.34375,-4.59375,0.0,0.0,0.0
1696286835851,-0.6953125,0.359375,-0.15722656,-126.125,-4.03125,-2.625,-80.875,-24.125,-189.9375
1696286836062,-0.89746094,0.29882812,-0.20703125,-103.15625,21.09375,19.40625,0.0,0.0,0.0
1696286836064,-1.453125,0.1875,-0.15527344,-119.34375,111.5,39.40625,0.0,0.0,0.0
1696286836065,-1.1123047,-0.4814453,-0.2763672,-173.40625,126.5625,6.5625,0.0,0.0,0.0
1696286836067,-1.0361328,-0.49316406,-0.24316406,-27.71875,36.65625,-10.21875,0.0,0.0,0.0
1696286836068,-1.0898438,-0.21386719,-0.06738281,63.9375,5.34375,-15.46875,0.0,0.0,0.0
1696286836090,-1.0488281,0.32421875,0.7451172,-59.9375,171.75,-18.03125,0.0,0.0,0.0
1696286836152,-1.0634766,-0.359375,0.07910156,-70.3125,-47.75,5.0,0.0,0.0,0.0
1696286836242,-0.7636719,-0.3251953,0.032226562,-50.0625,-8.3125,-23.8125,0.0,0.0,0.0
1696286836270,-0.703125,-0.05078125,9.765625E-4,-127.53125,-0.8125,-14.1875,0.0,0.0,0.0
1696286836272,-0.87890625,-0.046875,0.020507812,-103.65625,25.875,-11.4375,0.0,0.0,0.0
1696286836305,-1.1289062,-0.020507812,0.060546875,-50.84375,35.9375,-1.3125,0.0,0.0,0.0
1696286836330,-1.4951172,0.045898438,0.078125,-92.90625,44.1875,7.375,-80.5625,-20.9375,-194.625
1696286836482,-1.6337891,-0.14746094,-0.060546875,-126.53125,-16.1875,18.0625,0.0,0.0,0.0
1696286836485,-1.6064453,-0.12109375,-0.14746094,-68.875,-12.53125,13.15625,0.0,0.0,0.0
1696286836487,-1.2666016,0.2890625,0.42773438,-3.375,-12.96875,26.0,0.0,0.0,0.0
1696286836510,-1.3857422,0.5488281,0.9033203,-63.5,-197.21875,83.90625,0.0,0.0,0.0
1696286836542,-1.1083984,-0.15722656,-0.8457031,-313.125,-107.8125,22.375,0.0,0.0,0.0
1696286836571,-1.3583984,-0.078125,-0.47265625,-79.65625,-114.21875,-0.4375,0.0,0.0,0.0
1696286836633,-1.3144531,-0.107421875,0.5625,187.3125,-254.28125,61.25,0.0,0.0,0.0
1696286836666,-0.92089844,0.040039062,0.036132812,71.9375,-179.59375,69.8125,0.0,0.0,0.0
1696286836692,-0.6904297,0.15039062,0.21484375,46.625,-211.75,81.90625,0.0,0.0,0.0
1696286836753,-0.42578125,0.09667969,0.19433594,101.125,-175.25,35.5625,0.0,0.0,0.0
1696286836783,-0.23925781,0.032226562,-0.0107421875,93.5625,-142.40625,30.0,0.0,0.0,0.0
1696286836810,-0.038085938,0.1484375,0.12890625,73.59375,-104.3125,15.84375,0.0,0.0,0.0
1696286836872,-0.10546875,0.27246094,0.4970703,38.5625,-34.5,9.125,-54.75,-6.6875,-165.1875
1696286836900,-0.359375,0.32714844,0.734375,-8.75,-5.5625,-7.9375,0.0,0.0,0.0
1696286836928,-0.5839844,0.265625,0.9765625,-43.59375,43.625,-49.75,0.0,0.0,0.0
1696286836993,-1.0722656,0.56933594,1.1777344,-39.3125,12.9375,-21.6875,0.0,0.0,0.0
1696286837024,-0.9863281,0.13476562,1.4306641,17.375,58.875,-79.90625,0.0,0.0,0.0
1696286837050,-0.6875,0.6484375,0.81152344,-23.28125,90.0625,-74.125,0.0,0.0,0.0
1696286837114,-0.88671875,0.21191406,0.359375,-140.21875,150.75,-82.84375,0.0,0.0,0.0
1696286837169,-1.1171875,0.25097656,0.35351562,-90.40625,139.3125,-56.28125,0.0,0.0,0.0
1696286837171,-0.8222656,0.24804688,0.2548828,-87.28125,118.46875,-31.375,0.0,0.0,0.0
1696286837228,-0.9238281,0.15136719,0.3046875,-98.40625,138.40625,-2.28125,0.0,0.0,0.0
1696286837261,-0.953125,-0.025390625,0.10644531,-98.21875,136.75,7.8125,0.0,0.0,0.0
1696286837290,-0.875,-0.2841797,-0.107421875,-12.46875,96.25,33.96875,0.0,0.0,0.0
1696286837351,-1.1533203,-0.6933594,0.25683594,124.6875,75.5,2.84375,-73.1875,-17.6875,-179.875
1696286837382,-0.83984375,-0.14648438,0.26953125,127.96875,49.1875,-46.65625,0.0,0.0,0.0
1696286837411,-0.9091797,0.1328125,0.34472656,5.78125,71.03125,-61.46875,0.0,0.0,0.0
1696286837470,-0.82421875,0.10546875,0.21582031,49.0625,18.65625,-31.5,0.0,0.0,0.0
1696286837502,-0.95996094,-0.0625,0.25390625,61.03125,23.0625,-9.46875,0.0,0.0,0.0
1696286837531,-1.2089844,-0.22851562,0.15917969,-11.625,36.84375,-3.625,0.0,0.0,0.0
1696286837590,-1.2929688,-0.0078125,-0.09277344,-131.71875,58.09375,6.03125,0.0,0.0,0.0
1696286837620,-1.3417969,-0.046875,-0.0703125,-125.3125,80.25,10.375,0.0,0.0,0.0
1696286837652,-1.4892578,-0.20117188,-0.068359375,-51.28125,34.46875,22.8125,0.0,0.0,0.0
1696286837709,-1.2490234,-0.099609375,0.2548828,65.71875,-4.46875,31.25,0.0,0.0,0.0
1696286837739,-1.1621094,0.25976562,0.62402344,139.3125,-107.8125,55.34375,0.0,0.0,0.0
1696286837769,-1.328125,0.6503906,0.5419922,10.0,-145.71875,96.59375,0.0,0.0,0.0
1696286837833,-1.2744141,-0.06933594,0.3046875,-73.5,-137.59375,68.21875,0.0,0.0,0.0
1696286837859,-1.0722656,-0.034179688,-0.828125,-239.8125,-161.9375,-7.34375,-73.625,-15.125,-181.5625
1696286837890,-1.0117188,0.17480469,0.31933594,243.15625,-218.71875,59.5,0.0,0.0,0.0
1696286837954,-1.0175781,-0.14550781,0.22167969,112.59375,-211.625,90.875,0.0,0.0,0.0
1696286837979,-0.5332031,0.35839844,0.013671875,56.8125,-182.21875,26.28125,0.0,0.0,0.0
1696286838010,-0.28808594,0.2763672,0.32421875,77.375,-166.21875,34.53125,0.0,0.0,0.0
1696286838074,-0.15136719,0.27148438,0.32226562,52.21875,-129.65625,30.6875,0.0,0.0,0.0
1696286838101,-0.19238281,0.20117188,0.4814453,11.875,-48.21875,-0.5,0.0,0.0,0.0
1696286838132,-0.42578125,0.3642578,0.7314453,-35.65625,10.1875,-23.625,0.0,0.0,0.0
1696286838190,-0.3515625,0.16699219,1.0703125,19.6875,36.96875,-49.625,0.0,0.0,0.0
1696286838222,-0.5029297,0.8046875,0.6201172,-20.09375,45.15625,-37.25,0.0,0.0,0.0
1696286838249,-1.3769531,0.18066406,0.28808594,-19.90625,78.96875,-76.25,0.0,0.0,0.0
1696286838313,-0.7841797,0.50390625,0.62109375,-81.5,111.9375,-72.15625,0.0,0.0,0.0
1696286838341,-0.9580078,0.24414062,0.33203125,-148.9375,146.46875,-74.46875,-65.6875,-11.9375,-169.25
1696286838370,-1.1591797,0.28808594,0.20898438,-139.3125,139.4375,-32.78125,0.0,0.0,0.0
1696286838431,-0.98339844,0.030273438,0.2548828,-102.90625,164.90625,-14.71875,0.0,0.0,0.0
1696286838490,-0.9345703,-0.030273438,0.115234375,-65.75,138.09375,23.3125,0.0,0.0,0.0
1696286838521,-0.9794922,-0.15722656,0.030273438,-14.84375,134.3125,23.1875,0.0,0.0,0.0
1696286838550,-0.8408203,-0.24023438,0.20898438,50.15625,93.78125,0.40625,0.0,0.0,0.0
1696286838580,-0.953125,-0.43554688,0.23535156,75.90625,54.125,-17.96875,0.0,0.0,0.0
1696286838610,-0.72265625,-0.26660156,0.22265625,84.625,68.40625,-69.15625,0.0,0.0,0.0
1696286838705,-0.8701172,0.19921875,0.4169922,-71.0,104.0625,-72.90625,0.0,0.0,0.0
1696286838708,-0.9638672,0.15039062,0.26757812,3.03125,17.375,-21.5625,0.0,0.0,0.0
1696286838730,-1.1611328,-0.23535156,0.24121094,92.75,-11.4375,11.03125,0.0,0.0,0.0
1696286838854,-1.0498047,-0.16796875,0.19726562,-8.625,26.59375,2.71875,0.0,0.0,0.0
1696286838857,-1.2871094,-0.09863281,-0.091796875,-124.21875,41.375,4.6875,0.0,0.0,0.0
1696286838858,-1.5166016,-0.20507812,-0.14453125,-92.0,33.5,5.34375,-80.375,-24.4375,-191.875
1696286838908,-1.5917969,-0.17285156,0.03515625,55.09375,-3.6875,30.9375,0.0,0.0,0.0
1696286838939,-1.4619141,-0.24023438,0.33007812,52.46875,-72.15625,20.375,0.0,0.0,0.0
1696286838970,-1.0595703,0.7109375,0.82421875,59.4375,-138.25,37.71875,0.0,0.0,0.0
1696286839035,-1.5380859,0.40429688,0.55566406,15.65625,-168.71875,86.71875,0.0,0.0,0.0
1696286839058,-1.578125,0.029296875,-0.7871094,-406.21875,-30.46875,-8.1875,0.0,0.0,0.0
1696286839092,-0.89453125,0.41015625,-0.40527344,116.125,-156.21875,75.125,0.0,0.0,0.0
1696286839153,-0.8642578,-0.0146484375,0.6386719,284.21875,-267.28125,104.0,0.0,0.0,0.0
1696286839181,-0.73828125,-0.16699219,-0.119140625,1.9375,-142.46875,65.59375,0.0,0.0,0.0
1696286839208,-0.40039062,0.3564453,0.13574219,141.03125,-212.1875,75.375,0.0,0.0,0.0
1696286839273,-0.2109375,-0.09472656,0.16308594,108.25,-156.9375,69.6875,0.0,0.0,0.0
1696286839300,0.01953125,0.4560547,0.29296875,96.3125,-89.6875,56.6875,0.0,0.0,0.0
1696286839331,-0.25585938,0.49414062,0.5175781,34.65625,-34.625,33.625,-54.625,-2.6875,-167.4375
1696286839454,-0.29882812,0.6279297,0.68066406,-29.5625,9.1875,4.6875,0.0,0.0,0.0
1696286839456,-0.31933594,0.26757812,0.72753906,-65.6875,39.46875,-13.25,0.0,0.0,0.0
1696286839458,-0.5654297,0.7441406,1.0830078,-60.0,38.0,-11.71875,0.0,0.0,0.0
1696286839509,-1.0078125,0.024414062,2.0,-40.40625,58.40625,-56.21875,0.0,0.0,0.0
1696286839541,-0.8261719,0.9511719,0.75390625,-66.40625,92.21875,-74.125,0.0,0.0,0.0
1696286839570,-0.62597656,0.44335938,0.47265625,-191.3125,137.0625,-59.78125,0.0,0.0,0.0
1696286839634,-0.9560547,0.13183594,0.3876953,-208.375,178.4375,-39.5,0.0,0.0,0.0
1696286839661,-1.2724609,0.09082031,0.3095703,-174.21875,173.25,-45.71875,0.0,0.0,0.0
1696286839691,-0.9902344,0.01171875,0.1328125,-162.6875,189.25,-0.4375,0.0,0.0,0.0
1696286839755,-1.0019531,-0.11230469,-0.055664062,-50.84375,171.375,22.9375,0.0,0.0,0.0
1696286839780,-1.1083984,-0.24121094,0.04296875,-69.59375,188.34375,28.78125,0.0,0.0,0.0
1696286839815,-0.85058594,-0.74609375,-0.2783203,70.78125,35.8125,-1.78125,0.0,0.0,0.0
1696286839873,-0.63964844,-0.2783203,-0.0625,109.59375,17.875,-57.03125,-78.4375,-22.1875,-182.125
1696286839899,-0.56933594,-0.06933594,0.40722656,-64.59375,84.8125,-96.34375,0.0,0.0,0.0
1696286839931,-0.92089844,0.091796875,0.42382812,-17.71875,49.375,-60.375,0.0,0.0,0.0
1696286839994,-1.3857422,-0.2607422,0.16992188,-29.9375,37.28125,8.34375,0.0,0.0,0.0
1696286840021,-1.1416016,-0.30566406,0.50683594,34.59375,5.21875,0.0,0.0,0.0,0.0
1696286840051,-1.0341797,-0.203125,-0.13085938,-192.03125,48.3125,-7.34375,0.0,0.0,0.0
1696286840113,-1.2236328,-0.111328125,-0.43359375,-160.84375,35.875,6.5625,0.0,0.0,0.0
1696286840142,-1.46875,-0.24902344,0.08886719,92.5,13.84375,16.53125,0.0,0.0,0.0
1696286840170,-1.6005859,-0.064453125,0.20117188,-69.90625,-17.46875,13.28125,0.0,0.0,0.0
1696286840236,-1.2119141,0.37890625,-0.19335938,-124.59375,-77.53125,4.5625,0.0,0.0,0.0
1696286840259,-1.0878906,0.34277344,0.06933594,-12.09375,-115.1875,32.46875,0.0,0.0,0.0
1696286840300,-1.2236328,0.099609375,0.22753906,36.4375,-134.46875,56.0625,0.0,0.0,0.0
1696286840353,-1.109375,0.2841797,-0.123046875,-71.96875,-110.125,61.5,-79.0625,-22.3125,-177.8125
1696286840378,-0.92089844,0.32910156,-0.28320312,-143.25,-88.03125,46.75,0.0,0.0,0.0
1696286840411,-0.84765625,-0.0078125,-0.25195312,-23.75,-74.84375,64.4375,0.0,0.0,0.0
1696286840443,-0.82128906,-0.09863281,0.29296875,54.84375,-108.34375,76.28125,0.0,0.0,0.0
1696286840504,-0.49023438,0.15039062,-0.119140625,-10.15625,-53.90625,62.59375,0.0,0.0,0.0
1696286840530,-0.4892578,0.17578125,0.0146484375,-20.9375,-49.09375,52.59375,0.0,0.0,0.0
1696286840560,-0.42285156,0.1015625,0.12207031,-36.21875,-12.34375,12.0625,0.0,0.0,0.0
1696286840623,-0.453125,0.060546875,0.14257812,-47.375,35.03125,-3.875,0.0,0.0,0.0
1696286840654,-0.7480469,0.171875,0.31445312,-92.1875,79.9375,-22.21875,0.0,0.0,0.0
1696286840679,-1.1757812,0.07421875,1.0068359,-134.15625,69.75,-49.5625,0.0,0.0,0.0
1696286840785,-0.9580078,-0.06933594,1.5253906,-58.3125,28.96875,-29.625,0.0,0.0,0.0
1696286840787,-0.8955078,-0.18457031,0.37304688,-44.3125,28.125,-34.25,0.0,0.0,0.0
1696286840800,-1.7558594,0.40039062,-0.2919922,-20.15625,29.84375,-16.4375,0.0,0.0,0.0
1696286840860,-0.5605469,0.8808594,0.16796875,-2.75,-1.0,-10.28125,-71.875,-25.1875,-162.625
1696286840894,-0.79785156,0.33789062,-0.123046875,-109.5625,34.53125,17.5,0.0,0.0,0.0
1696286840922,-1.2001953,-0.20703125,-0.3701172,-124.96875,101.375,23.1875,0.0,0.0,0.0
1696286840978,-1.2783203,-0.203125,-0.12792969,-121.09375,103.1875,21.84375,0.0,0.0,0.0
1696286841008,-0.95996094,-0.15527344,0.07421875,-114.53125,34.40625,-15.46875,0.0,0.0,0.0
1696286841042,-0.98828125,-0.0859375,0.01953125,-103.96875,44.25,5.46875,0.0,0.0,0.0
1696286841162,-0.91308594,-0.16210938,0.00390625,-82.21875,39.46875,11.15625,0.0,0.0,0.0
1696286841165,-0.9580078,-0.265625,0.064453125,-10.15625,48.4375,2.65625,0.0,0.0,0.0
1696286841167,-0.9824219,-0.076171875,0.3408203,-128.5,104.125,-7.78125,0.0,0.0,0.0
1696286841342,-0.9111328,0.05078125,0.31835938,-127.75,47.15625,8.84375,0.0,0.0,0.0
1696286841345,-0.9873047,-0.39160156,0.078125,-110.3125,41.5625,3.90625,0.0,0.0,0.0
1696286841347,-0.94433594,-0.16015625,0.4111328,-167.625,1.625,-17.53125,0.0,0.0,0.0
1696286841349,-1.1298828,0.0390625,0.26953125,-168.34375,-60.875,-15.40625,-78.4375,-39.5625,-178.375
1696286841371,-1.6220703,0.32226562,-0.08691406,-156.03125,-108.53125,-31.3125,0.0,0.0,0.0
1696286841401,-1.8603516,0.82128906,0.36816406,-151.375,-169.3125,-7.65625,0.0,0.0,0.0
1696286841462,-1.4492188,0.8203125,0.017578125,-161.28125,-205.53125,20.125,0.0,0.0,0.0
1696286841490,-1.4765625,0.16308594,0.12011719,110.53125,-229.75,112.84375,0.0,0.0,0.0
1696286841522,-1.1904297,-0.14160156,0.33984375,51.25,-201.75,143.65625,0.0,0.0,0.0
1696286841579,-0.88671875,0.17871094,0.23730469,186.1875,-243.375,183.21875,0.0,0.0,0.0
1696286841611,-0.2626953,0.21386719,0.23828125,103.4375,-182.9375,147.125,0.0,0.0,0.0
1696286841640,-0.6074219,0.08886719,0.52246094,5.71875,-103.09375,57.25,0.0,0.0,0.0
1696286841706,-0.21972656,0.26367188,0.3857422,67.84375,-93.9375,22.25,0.0,0.0,0.0
1696286841729,0.046875,0.4638672,0.6064453,26.53125,-40.78125,10.1875,0.0,0.0,0.0
1696286841763,-0.06933594,0.52246094,0.5292969,1.8125,-11.125,10.71875,0.0,0.0,0.0
1696286841824,-0.18457031,0.53125,0.68359375,-4.59375,-2.28125,3.53125,0.0,0.0,0.0
1696286841853,-0.12207031,0.3935547,0.7089844,-14.0,-1.84375,-16.75,-43.5,-22.9375,-150.1875
1696286841879,-0.13574219,0.66308594,0.75097656,-15.15625,39.0625,-30.15625,0.0,0.0,0.0
1696286841942,-0.3330078,1.4208984,0.54589844,-74.28125,59.1875,-14.78125,0.0,0.0,0.0
1696286841970,-0.8691406,-0.3330078,0.7314453,5.34375,73.59375,-25.65625,0.0,0.0,0.0
1696286842000,-0.5078125,0.7705078,0.42285156,-85.09375,112.71875,-6.3125,0.0,0.0,0.0
1696286842061,-1.1806641,0.28222656,0.58203125,-177.4375,140.1875,-12.15625,0.0,0.0,0.0
1696286842092,-0.99121094,0.3701172,0.5263672,-235.84375,128.65625,42.28125,0.0,0.0,0.0
1696286842121,-0.61328125,0.0234375,0.35253906,-166.875,140.90625,38.125,0.0,0.0,0.0
1696286842183,-1.0673828,-0.034179688,0.54296875,-119.34375,140.65625,10.1875,0.0,0.0,0.0
1696286842218,-0.9667969,0.21972656,0.19824219,-188.1875,148.3125,10.71875,0.0,0.0,0.0
1696286842241,-0.8828125,-0.047851562,0.16308594,-74.78125,132.8125,17.3125,0.0,0.0,0.0
1696286842305,-0.9160156,-0.24511719,0.3935547,-74.53125,101.90625,21.09375,0.0,0.0,0.0
1696286842332,-0.9785156,-0.4267578,0.28710938,-8.0625,58.21875,-1.90625,-74.5625,-46.625,-177.9375
1696286842361,-0.7001953,-0.18945312,0.55078125,-36.5625,65.65625,-41.875,0.0,0.0,0.0
1696286842424,-0.6738281,-0.1015625,0.4921875,-38.15625,46.6875,-29.75,0.0,0.0,0.0
1696286842451,-0.79785156,-0.19824219,0.3720703,5.53125,12.625,-15.6875,0.0,0.0,0.0
1696286842482,-0.9824219,-0.103515625,0.20996094,-7.53125,2.125,-2.59375,0.0,0.0,0.0
1696286842575,-1.2714844,0.14160156,0.11621094,-6.5,24.53125,13.28125,0.0,0.0,0.0
1696286842581,-1.5068359,0.032226562,0.0546875,-20.84375,70.65625,26.28125,0.0,0.0,0.0
1696286842601,-1.4716797,-0.099609375,-0.013671875,-98.84375,101.59375,17.75,0.0,0.0,0.0
1696286842753,-1.2871094,-0.07519531,0.16601562,58.875,78.125,18.71875,0.0,0.0,0.0
1696286842755,-1.2167969,0.19335938,0.87597656,56.0625,-33.15625,53.9375,0.0,0.0,0.0
1696286842756,-1.25,-0.04296875,0.8046875,-95.0625,-112.75,37.09375,0.0,0.0,0.0
1696286842780,-1.5400391,0.047851562,-0.087890625,-338.34375,-71.96875,-16.8125,0.0,0.0,0.0
1696286842809,-1.0800781,0.33789062,-0.4404297,-16.1875,-128.3125,-12.34375,0.0,0.0,0.0
1696286842841,-1.0869141,0.064453125,-0.06542969,173.9375,-199.28125,64.8125,-73.625,-47.1875,-188.125
1696286842902,-1.5175781,-0.51171875,0.5751953,83.3125,-209.71875,39.53125,0.0,0.0,0.0
1696286842929,-0.8535156,-0.061523438,-0.14941406,103.0625,-191.40625,17.3125,0.0,0.0,0.0
1696286842958,-0.30859375,0.21484375,-0.01171875,108.5625,-172.0625,1.09375,0.0,0.0,0.0
1696286843111,0.009765625,0.16992188,0.14550781,144.9375,-178.53125,-3.4375,0.0,0.0,0.0
1696286843116,-0.22265625,0.24414062,0.15625,48.15625,-76.90625,-7.15625,0.0,0.0,0.0
1696286843118,-0.39257812,0.1875,0.5839844,8.09375,-42.8125,-32.0625,0.0,0.0,0.0
1696286843142,-0.19628906,0.3564453,0.8388672,-7.78125,19.625,-28.21875,0.0,0.0,0.0
1696286843169,-0.48632812,0.14257812,1.1054688,-45.90625,66.875,-31.15625,0.0,0.0,0.0
1696286843200,-0.7890625,0.22851562,0.6689453,41.3125,51.3125,-16.0,0.0,0.0,0.0
1696286843263,-1.1230469,0.6386719,0.44726562,-36.21875,104.59375,-20.71875,0.0,0.0,0.0
1696286843291,-0.73535156,0.12988281,0.36035156,-116.90625,151.71875,-59.28125,0.0,0.0,0.0
1696286843321,-1.4101562,-0.025390625,0.39257812,-103.71875,161.59375,-52.375,-69.0,-48.5625,-170.875
1696286843383,-0.7861328,0.25195312,0.26171875,-101.8125,114.65625,-19.0625,0.0,0.0,0.0
1696286843409,-0.9189453,0.1171875,0.31445312,-91.03125,128.03125,18.84375,0.0,0.0,0.0
1696286843444,-0.9511719,0.09277344,0.13476562,-71.90625,129.5,46.96875,0.0,0.0,0.0
1696286843502,-1.0800781,-0.2109375,-0.08105469,-0.375,146.78125,56.1875,0.0,0.0,0.0
1696286843531,-1.015625,-0.6855469,-0.1015625,109.25,37.59375,-13.375,0.0,0.0,0.0
1696286843560,-0.7529297,-0.2529297,0.4736328,175.78125,8.84375,-6.125,0.0,0.0,0.0
1696286843623,-0.6777344,0.07714844,0.28320312,-29.75,54.625,-64.65625,0.0,0.0,0.0
1696286843651,-0.7207031,0.23730469,0.45703125,-60.625,28.5,-27.84375,0.0,0.0,0.0
1696286843680,-1.0146484,-0.16601562,0.37304688,51.875,-4.96875,-1.25,0.0,0.0,0.0
1696286843742,-1.0458984,-0.17285156,0.08691406,-63.8125,-0.4375,-15.40625,0.0,0.0,0.0
1696286843799,-1.4033203,0.14257812,0.0087890625,-41.21875,74.375,-16.9375,0.0,0.0,0.0
1696286843833,-1.6015625,0.018554688,0.045898438,-40.84375,99.96875,5.78125,0.0,0.0,0.0
1696286843860,-1.5566406,-0.26953125,-0.016601562,-21.6875,47.96875,21.34375,-73.5,-54.125,-195.5
1696286843889,-1.3740234,-0.022460938,0.0390625,27.6875,18.0,26.90625,0.0,0.0,0.0
1696286843918,-1.0878906,0.18554688,0.6796875,75.96875,-81.375,34.59375,0.0,0.0,0.0
1696286843983,-1.1748047,0.24414062,0.8486328,-68.75,-81.5,57.71875,0.0,0.0,0.0
1696286844010,-1.2578125,-0.14941406,-0.39257812,-328.09375,-78.125,11.53125,0.0,0.0,0.0
1696286844073,-0.9111328,0.1015625,-0.65722656,-105.53125,-113.84375,-33.84375,0.0,0.0,0.0
1696286844099,-1.0673828,-0.12988281,0.5263672,296.125,-239.28125,64.9375,0.0,0.0,0.0
1696286844131,-1.0878906,-0.18554688,-0.036132812,89.15625,-199.65625,43.875,0.0,0.0,0.0
1696286844160,-0.7285156,0.28320312,0.11425781,107.65625,-174.5625,9.6875,0.0,0.0,0.0
1696286844224,-0.4140625,0.20507812,0.25585938,152.625,-205.03125,36.4375,0.0,0.0,0.0
1696286844251,-0.103515625,0.25390625,0.16992188,92.75,-150.90625,18.90625,0.0,0.0,0.0
1696286844279,-0.3564453,0.31445312,0.3310547,52.53125,-62.21875,0.28125,0.0,0.0,0.0
1696286844345,-0.17773438,0.3388672,0.76171875,-13.1875,-23.625,-25.71875,-63.625,-40.0,-153.375
1696286844369,-0.26464844,0.27148438,1.0429688,-14.125,45.28125,-49.5,0.0,0.0,0.0
1696286844403,-0.42382812,0.68066406,0.40234375,-22.84375,56.6875,-13.0625,0.0,0.0,0.0
1696286844468,-1.65625,-0.21582031,0.90527344,-66.78125,106.78125,-74.34375,0.0,0.0,0.0
1696286844490,-0.9970703,0.5703125,0.57714844,-68.5625,101.78125,-61.90625,0.0,0.0,0.0
1696286844519,-0.57910156,0.22265625,0.36621094,-90.21875,140.0625,-62.03125,0.0,0.0,0.0
1696286844581,-1.0888672,0.18847656,0.20898438,-106.46875,131.9375,-8.3125,0.0,0.0,0.0
1696286844611,-1.0820312,0.037109375,0.18945312,-127.34375,144.46875,-4.09375,0.0,0.0,0.0
1696286844641,-0.98535156,-0.09863281,0.09472656,-79.71875,107.03125,37.71875,0.0,0.0,0.0
1696286844705,-1.1425781,-0.19335938,0.1015625,-10.5625,191.4375,19.875,0.0,0.0,0.0
1696286844731,-0.99902344,-0.2861328,-0.025390625,13.28125,98.1875,-14.78125,0.0,0.0,0.0
1696286844762,-0.8496094,-0.24609375,-0.10644531,84.8125,50.65625,-15.40625,0.0,0.0,0.0
1696286844823,-0.75878906,-0.15527344,0.06933594,90.375,32.15625,-48.34375,0.0,0.0,0.0
1696286844881,-0.6748047,0.15917969,0.40625,-31.5625,91.90625,-58.1875,-78.125,-56.9375,-188.75
1696286844911,-0.78125,-0.07714844,0.125,-17.78125,1.3125,-26.625,0.0,0.0,0.0
1696286844942,-1.2939453,-0.07714844,0.18164062,18.28125,7.625,-3.3125,0.0,0.0,0.0
1696286844970,-1.3857422,-0.3046875,0.3955078,-1.90625,58.09375,-6.0625,0.0,0.0,0.0
1696286845003,-1.2070312,-0.10253906,0.005859375,-97.78125,19.53125,-9.0,0.0,0.0,0.0
1696286845064,-1.4658203,-0.01953125,-0.078125,-83.21875,30.75,3.59375,0.0,0.0,0.0
1696286845090,-1.5703125,-0.1171875,-0.030273438,-0.4375,-21.125,29.65625,0.0,0.0,0.0
1696286845149,-1.1523438,0.040039062,-0.018554688,69.0625,-42.6875,16.21875,0.0,0.0,0.0
1696286845182,-1.0019531,0.82714844,0.90722656,196.8125,-151.1875,62.65625,0.0,0.0,0.0
1696286845212,-1.5791016,0.17675781,0.51171875,-137.21875,-135.875,93.375,0.0,0.0,0.0
1696286845240,-1.6044922,-0.10253906,-0.83691406,-377.03125,-87.0625,29.90625,0.0,0.0,0.0
1696286845335,-1.1103516,0.28320312,-0.14160156,195.0,-196.65625,114.5625,0.0,0.0,0.0
1696286845340,-1.1054688,-0.10449219,0.5058594,153.25,-216.03125,116.0,-78.0,-47.9375,-178.25
1696286845361,-0.7861328,0.49609375,0.0859375,16.15625,-186.65625,90.5,0.0,0.0,0.0
1696286845428,-0.46289062,0.109375,0.15625,93.625,-199.78125,82.75,0.0,0.0,0.0
1696286845486,-0.17773438,0.099609375,0.19042969,83.0,-160.65625,61.5625,0.0,0.0,0.0
1696286845512,-0.19726562,0.31054688,0.2861328,63.21875,-94.25,52.0,0.0,0.0,0.0
1696286845542,-0.15136719,0.22265625,0.4638672,19.34375,-33.28125,42.34375,0.0,0.0,0.0
1696286845571,-0.140625,0.51660156,0.66308594,-30.46875,13.21875,14.875,0.0,0.0,0.0
1696286845599,-0.26171875,0.24902344,1.0361328,-9.40625,39.71875,-21.25,0.0,0.0,0.0
1696286845661,-0.4501953,0.7910156,0.79589844,-43.28125,31.96875,-20.03125,0.0,0.0,0.0
1696286845691,-0.8222656,0.2529297,1.6103516,-11.625,18.34375,-86.1875,0.0,0.0,0.0
1696286845721,-0.6142578,0.90234375,0.7158203,-80.59375,93.4375,-45.65625,0.0,0.0,0.0
1696286845785,-0.6347656,0.38378906,0.49902344,-129.53125,122.90625,-60.9375,0.0,0.0,0.0
1696286845821,-1.0576172,0.2607422,0.3359375,-180.1875,149.75,-16.8125,0.0,0.0,0.0
1696286845839,-1.1435547,0.25390625,0.3798828,-175.0,138.84375,-35.90625,-72.75,-47.8125,-165.1875
1696286845903,-0.7480469,0.2685547,0.24804688,-162.5,132.25,-19.375,0.0,0.0,0.0
1696286845931,-0.90722656,0.072265625,0.1953125,-189.28125,154.40625,11.59375,0.0,0.0,0.0
1696286845961,-1.0605469,0.0087890625,0.07324219,-163.40625,202.4375,45.34375,0.0,0.0,0.0
1696286846054,-1.0732422,-0.13378906,0.025390625,-148.75,185.96875,41.96875,0.0,0.0,0.0
1696286846082,-0.92089844,-0.53808594,-0.015625,-67.71875,65.21875,4.6875,0.0,0.0,0.0
1696286846086,-0.8808594,-0.3466797,-0.13378906,-51.40625,27.09375,-4.34375,0.0,0.0,0.0
1696286846143,-0.8359375,0.01171875,0.022460938,22.03125,30.625,-15.8125,0.0,0.0,0.0
1696286846203,-0.8144531,0.06933594,0.296875,8.46875,55.96875,-2.46875,0.0,0.0,0.0
1696286846229,-0.9707031,-0.119140625,0.23925781,-54.59375,39.34375,14.375,0.0,0.0,0.0
1696286846294,-0.95996094,-0.13085938,0.115234375,-54.03125,22.4375,18.78125,0.0,0.0,0.0
1696286846299,-0.95996094,-0.37890625,0.17285156,-71.78125,49.78125,15.5,0.0,0.0,0.0
1696286846319,-0.8720703,-0.12207031,0.328125,-138.9375,54.125,-26.9375,-78.875,-50.9375,-204.9375
1696286846385,-1.1142578,-0.14941406,0.14257812,-127.9375,-14.84375,-16.1875,0.0,0.0,0.0
1696286846410,-1.5117188,-0.06933594,-9.765625E-4,-152.71875,-35.0,-33.21875,0.0,0.0,0.0
1696286846441,-1.4775391,0.51171875,0.5810547,-72.03125,-127.75,-13.4375,0.0,0.0,0.0
1696286846534,-1.2373047,0.78027344,-0.13183594,-191.71875,-180.625,15.4375,0.0,0.0,0.0
1696286846562,-0.9794922,0.4638672,-0.51953125,-67.34375,-183.3125,42.15625,0.0,0.0,0.0
1696286846563,-1.3017578,-0.020507812,0.328125,215.5625,-182.21875,110.875,0.0,0.0,0.0
1696286846626,-0.8720703,0.060546875,-0.14648438,-39.75,-109.5625,77.5625,0.0,0.0,0.0
1696286846650,-0.4951172,0.2109375,0.07910156,-84.84375,-39.75,67.5,0.0,0.0,0.0
1696286846682,-0.5253906,0.0068359375,0.17773438,-27.90625,-7.875,38.375,0.0,0.0,0.0
1696286846778,-0.51953125,0.08984375,0.29003906,-57.5625,43.8125,8.28125,0.0,0.0,0.0
1696286846783,-0.5449219,0.041992188,0.4111328,-107.0,82.4375,-15.15625,0.0,0.0,0.0
1696286846799,-1.0585938,0.18652344,1.0107422,-200.34375,74.5625,-31.5,0.0,0.0,0.0
1696286847041,-1.0175781,-0.13085938,1.1191406,-72.15625,32.5625,-8.5625,-78.625,-36.125,-189.5
1696286847069,-0.60839844,-0.09375,0.15039062,-15.75,-0.3125,-7.40625,0.0,0.0,0.0
1696286847072,-1.1953125,0.4580078,-0.2763672,-98.21875,26.90625,-9.65625,0.0,0.0,0.0
1696286847074,-2.0,-0.12011719,0.74609375,-98.09375,121.1875,-35.15625,0.0,0.0,0.0
1696286847077,-0.8417969,0.49121094,-0.3408203,-201.25,-25.96875,5.65625,0.0,0.0,0.0
1696286847080,-1.0136719,0.12109375,-0.123046875,-190.6875,66.34375,28.25,0.0,0.0,0.0
1696286847101,-1.3662109,-0.3095703,-0.32617188,-230.90625,85.0,26.34375,0.0,0.0,0.0
1696286847131,-1.1230469,-0.6201172,-0.36132812,-222.375,60.09375,-8.5,0.0,0.0,0.0
1696286847165,-0.7060547,-0.23046875,-0.29003906,-108.53125,35.4375,9.125,0.0,0.0,0.0
1696286847221,-1.0166016,-0.3125,0.29589844,90.25,56.8125,-2.8125,0.0,0.0,0.0
1696286847249,-0.9404297,-0.115234375,0.32421875,-53.125,-7.65625,1.875,0.0,0.0,0.0
1696286847279,-0.7939453,-0.22753906,0.13671875,-56.0,-16.125,3.34375,0.0,0.0,0.0
1696286847342,-0.74609375,-0.25195312,0.32714844,-71.5,40.15625,-0.4375,-77.6875,-32.8125,-197.625
1696286847370,-1.1699219,-0.24902344,0.20410156,-110.71875,-12.53125,-10.875,0.0,0.0,0.0
1696286847400,-1.015625,-0.005859375,0.3310547,-94.0,24.15625,3.03125,0.0,0.0,0.0
1696286847462,-1.1728516,0.0859375,0.015625,-125.5,-47.5,8.03125,0.0,0.0,0.0
1696286847491,-1.5107422,0.021484375,-0.08496094,-90.28125,18.46875,21.90625,0.0,0.0,0.0
1696286847521,-1.4179688,-0.14355469,-0.072265625,-116.28125,23.4375,29.03125,0.0,0.0,0.0
1696286847611,-1.6494141,-0.36035156,-0.043945312,59.125,-12.53125,54.5,0.0,0.0,0.0
1696286847639,-1.2265625,0.005859375,1.1806641,130.0,132.5625,31.96875,0.0,0.0,0.0
1696286847641,-0.8466797,0.33203125,0.24414062,-171.78125,-142.53125,46.1875,0.0,0.0,0.0
1696286847700,-1.8642578,-0.24414062,-0.4326172,-227.1875,-28.28125,32.9375,0.0,0.0,0.0
1696286847733,-1.4082031,-0.13867188,0.00390625,-151.625,-114.21875,-19.71875,0.0,0.0,0.0
1696286847761,-1.0224609,-0.07714844,-0.19433594,43.5,-142.84375,-10.5,0.0,0.0,0.0
1696286847821,-1.0478516,-0.5546875,0.57910156,177.90625,-211.6875,20.25,0.0,0.0,0.0
1696286847852,-0.9550781,0.103515625,0.051757812,132.125,-221.5625,48.625,-69.3125,-18.4375,-168.1875
1696286847879,-0.6640625,0.25390625,0.17382812,147.6875,-212.40625,48.875,0.0,0.0,0.0
1696286847940,-0.25585938,0.038085938,0.10644531,120.34375,-181.96875,-13.625,0.0,0.0,0.0
1696286847973,-0.15917969,0.30859375,0.20996094,62.1875,-121.84375,32.34375,0.0,0.0,0.0
1696286847999,-0.2529297,0.26757812,0.33203125,37.65625,-77.21875,3.09375,0.0,0.0,0.0
1696286848061,-0.24609375,0.41015625,0.66308594,-24.25,-40.46875,-23.4375,0.0,0.0,0.0
1696286848090,-0.2705078,0.19042969,0.8876953,-29.125,-5.875,-47.8125,0.0,0.0,0.0
1696286848149,-0.13476562,0.125,1.1914062,27.625,25.25,-43.84375,0.0,0.0,0.0
1696286848182,-0.57128906,1.1552734,1.7275391,-43.65625,57.28125,-9.84375,0.0,0.0,0.0
1696286848212,-1.1328125,-9.765625E-4,0.35839844,-36.625,148.375,-58.96875,0.0,0.0,0.0
1696286848240,-0.4453125,0.3046875,0.7089844,-43.84375,138.40625,-32.5625,0.0,0.0,0.0
1696286848301,-0.7470703,0.1015625,0.32128906,-144.65625,174.0,-58.71875,0.0,0.0,0.0
1696286848331,-1.1201172,0.0029296875,0.44335938,-68.5625,115.65625,-9.90625,0.0,0.0,0.0
1696286848362,-0.7783203,0.19726562,0.26464844,-64.40625,102.78125,-25.65625,-69.4375,-14.9375,-176.875
1696286848424,-1.0292969,0.07714844,0.31445312,-118.71875,122.71875,13.84375,0.0,0.0,0.0
1696286848480,-1.0585938,-0.08496094,0.0,48.75,101.90625,32.46875,0.0,0.0,0.0
1696286848512,-0.97558594,-0.22558594,0.4482422,55.59375,78.0,0.78125,0.0,0.0,0.0
1696286848541,-0.90527344,-0.07910156,0.15917969,68.71875,42.65625,-6.5,0.0,0.0,0.0
1696286848569,-0.8769531,-0.15332031,0.4892578,66.9375,35.875,-35.28125,0.0,0.0,0.0
1696286848603,-0.72558594,0.05078125,0.31347656,-39.3125,45.09375,-45.84375,0.0,0.0,0.0
1696286848634,-0.7480469,0.16210938,0.37402344,22.9375,15.5625,-17.09375,0.0,0.0,0.0
1696286848690,-0.83984375,-0.0625,0.4033203,71.75,7.125,4.1875,0.0,0.0,0.0
1696286848751,-1.2177734,-0.072265625,0.32421875,-20.78125,53.625,-15.53125,0.0,0.0,0.0
1696286848779,-1.4785156,0.06738281,0.15136719,-2.625,73.21875,1.03125,0.0,0.0,0.0
1696286848810,-1.4833984,-0.091796875,0.12792969,-7.65625,94.96875,-0.9375,0.0,0.0,0.0
1696286848840,-1.4482422,-0.41503906,0.030273438,-57.6875,80.375,-18.75,-74.125,-21.6875,-195.1875
1696286848870,-1.4306641,0.2734375,0.21972656,-32.65625,99.15625,2.5625,0.0,0.0,0.0
1696286848932,-1.0019531,0.31152344,0.6152344,34.15625,-50.1875,45.28125,0.0,0.0,0.0
1696286848961,-1.3076172,0.31152344,0.453125,-35.28125,-105.3125,54.625,0.0,0.0,0.0
1696286848992,-1.2519531,-0.24707031,0.18945312,8.65625,-96.03125,35.1875,0.0,0.0,0.0
1696286849051,-0.9638672,0.13964844,-0.67089844,-239.28125,-75.21875,6.6875,0.0,0.0,0.0
1696286849082,-1.2597656,0.091796875,0.020507812,75.96875,-152.0,18.28125,0.0,0.0,0.0
1696286849109,-1.0976562,-0.11425781,-0.14550781,118.9375,-237.1875,37.71875,0.0,0.0,0.0
1696286849174,-0.7783203,0.19726562,0.13183594,131.6875,-186.21875,48.75,0.0,0.0,0.0
1696286849202,-0.34277344,0.37890625,0.045898438,112.65625,-201.4375,56.9375,0.0,0.0,0.0
1696286849231,-0.25976562,0.12792969,0.29589844,76.21875,-159.1875,46.6875,0.0,0.0,0.0
1696286849289,-0.28320312,0.20019531,0.2783203,46.5,-109.21875,18.1875,0.0,0.0,0.0
1696286849322,-0.23535156,0.17089844,0.6230469,10.0,-51.78125,-6.78125,0.0,0.0,0.0
1696286849381,-0.32421875,0.3720703,0.9169922,23.53125,-12.40625,-32.125,-63.75,-14.6875,-170.125
1696286849409,-0.4658203,0.83691406,0.7871094,-27.0625,21.28125,-34.9375,0.0,0.0,0.0
1696286849439,-0.8671875,-0.119140625,1.609375,12.75,60.65625,-93.09375,0.0,0.0,0.0
1696286849471,-1.0732422,0.6875,0.5029297,-48.46875,85.5625,-44.9375,0.0,0.0,0.0
1696286849530,-0.625,0.3798828,0.4560547,-156.875,145.8125,-64.40625,0.0,0.0,0.0
1696286849650,-1.1513672,0.1171875,0.37304688,-176.15625,173.15625,-54.15625,0.0,0.0,0.0
1696286849653,-1.0488281,0.043945312,0.28125,-106.9375,119.625,-25.28125,0.0,0.0,0.0
1696286849655,-0.88671875,-9.765625E-4,0.24023438,-89.25,133.40625,8.71875,0.0,0.0,0.0
1696286849681,-1.0283203,-0.055664062,0.13574219,-27.125,174.46875,19.21875,0.0,0.0,0.0
1696286849710,-1.0869141,-0.14746094,0.037109375,-71.3125,138.21875,6.34375,0.0,0.0,0.0
1696286849803,-0.9472656,-0.32910156,-0.0126953125,-41.15625,116.5,1.875,0.0,0.0,0.0
1696286849804,-0.8535156,-0.3720703,0.0107421875,106.5,33.25,-10.09375,0.0,0.0,0.0
1696286849890,-0.6953125,0.0078125,0.30664062,106.3125,65.96875,-42.6875,-76.375,-29.5,-192.8125
1696286849896,-0.91308594,0.123046875,0.26367188,-79.53125,62.5,-36.8125,0.0,0.0,0.0
1696286849924,-0.82714844,-0.07324219,0.06542969,-25.96875,-21.9375,-7.78125,0.0,0.0,0.0
1696286849952,-1.2197266,-0.32226562,0.19335938,88.25,50.59375,-14.1875,0.0,0.0,0.0
1696286850014,-1.4140625,-0.07910156,0.453125,-10.9375,66.09375,-20.53125,0.0,0.0,0.0
1696286850040,-1.2236328,0.111328125,0.044921875,-132.59375,43.8125,0.46875,0.0,0.0,0.0
1696286850072,-1.5771484,-0.125,-0.12988281,-80.875,5.28125,19.15625,0.0,0.0,0.0
1696286850196,-1.4121094,-0.04296875,-0.16503906,-11.25,-20.78125,22.875,0.0,0.0,0.0
1696286850199,-1.0839844,0.032226562,0.19335938,39.21875,-53.59375,17.1875,0.0,0.0,0.0
1696286850201,-1.2441406,0.55371094,1.015625,143.0,-181.03125,81.84375,0.0,0.0,0.0
1696286850282,-1.3857422,-0.12890625,-0.21582031,-212.40625,-138.0625,46.625,0.0,0.0,0.0
1696286850285,-1.2519531,-0.16699219,-0.7871094,-255.5,-73.75,-24.90625,0.0,0.0,0.0
1696286850309,-1.078125,0.265625,0.17285156,236.6875,-244.15625,72.375,0.0,0.0,0.0
1696286850374,-0.7949219,-0.19726562,0.35546875,210.75,-210.78125,96.71875,-76.1875,-26.1875,-178.25
1696286850400,-0.63378906,0.33007812,-0.2861328,56.5625,-174.15625,69.3125,0.0,0.0,0.0
1696286850431,-0.40625,0.103515625,0.18457031,100.03125,-199.46875,76.34375,0.0,0.0,0.0
1696286850494,-0.28027344,0.14648438,0.1484375,67.1875,-135.09375,52.96875,0.0,0.0,0.0
1696286850522,-0.1328125,0.36035156,0.3955078,52.0,-95.28125,40.28125,0.0,0.0,0.0
1696286850586,-0.061523438,0.5595703,0.57128906,7.3125,-38.90625,21.28125,0.0,0.0,0.0
1696286850612,-0.17480469,0.5292969,0.8388672,-45.0625,13.0,-3.625,0.0,0.0,0.0
1696286850671,-0.32910156,0.21777344,0.9375,-36.28125,61.75,-33.21875,0.0,0.0,0.0
1696286850699,-0.58691406,0.64746094,1.0419922,7.6875,45.46875,-41.875,0.0,0.0,0.0
1696286850729,-0.99902344,0.54296875,1.5078125,-9.46875,30.625,-93.09375,0.0,0.0,0.0
1696286850763,-0.6328125,0.74121094,0.9111328,-107.125,99.53125,-92.1875,0.0,0.0,0.0
1696286850795,-0.8876953,0.20703125,0.26367188,-193.1875,168.0,-78.125,0.0,0.0,0.0
1696286850855,-1.4287109,0.26171875,0.2421875,-160.40625,184.25,-38.78125,-69.125,-26.6875,-166.6875
1696286850880,-0.8544922,0.12890625,0.0126953125,-172.6875,180.34375,-31.875,0.0,0.0,0.0
1696286850912,-0.96484375,-0.0048828125,0.18945312,-90.84375,156.71875,18.53125,0.0,0.0,0.0
1696286850970,-0.8935547,0.017578125,0.051757812,-113.1875,190.21875,26.96875,0.0,0.0,0.0
1696286851001,-0.9091797,-0.58203125,-0.02734375,-34.0,144.28125,8.84375,0.0,0.0,0.0
1696286851028,-0.7890625,-0.61621094,0.022460938,180.34375,-8.9375,-37.5625,0.0,0.0,0.0
1696286851214,-0.77441406,-0.17675781,0.39160156,53.09375,71.625,-67.8125,0.0,0.0,0.0
1696286851217,-0.9658203,-0.0048828125,0.19335938,-139.46875,20.4375,-74.0625,0.0,0.0,0.0
1696286851220,-0.99121094,0.16699219,0.08105469,-93.65625,24.65625,-31.25,0.0,0.0,0.0
1696286851221,-1.0048828,-0.32226562,0.15820312,64.4375,30.125,-3.8125,0.0,0.0,0.0
1696286851241,-1.1376953,-0.22851562,0.2626953,-21.6875,11.75,-1.96875,0.0,0.0,0.0
1696286851271,-0.921875,-0.048828125,-0.19726562,-147.0625,50.28125,-16.125,0.0,0.0,0.0
1696286851333,-1.2773438,-0.0078125,-0.34375,-146.75,36.375,10.71875,0.0,0.0,0.0
1696286851359,-1.3994141,-0.17871094,-0.25976562,-26.125,33.0625,11.03125,-76.625,-40.9375,-188.3125
1696286851427,-1.5439453,-0.20410156,0.021484375,53.8125,26.84375,35.375,0.0,0.0,0.0
1696286851451,-1.234375,0.07910156,0.25683594,-0.9375,-33.21875,27.28125,0.0,0.0,0.0
1696286851482,-1.1425781,0.3046875,0.17773438,-50.75,-107.625,39.09375,0.0,0.0,0.0
1696286851512,-1.3496094,0.33203125,0.2734375,-65.3125,-142.28125,56.5,0.0,0.0,0.0
1696286851577,-1.2060547,0.2734375,0.10839844,-122.625,-169.4375,73.34375,0.0,0.0,0.0
1696286851601,-1.0712891,0.14160156,-0.5800781,-290.0625,-66.125,24.09375,0.0,0.0,0.0
1696286851663,-0.9091797,0.21386719,-0.45996094,13.78125,-139.34375,75.96875,0.0,0.0,0.0
1696286851690,-0.93847656,0.19726562,0.63183594,174.1875,-143.3125,110.21875,0.0,0.0,0.0
1696286851723,-0.53125,0.2607422,0.01171875,-8.125,-99.3125,116.125,0.0,0.0,0.0
1696286851751,-0.41992188,0.22167969,0.087890625,-75.875,-63.3125,107.90625,0.0,0.0,0.0
1696286851813,-0.3173828,-0.083984375,0.005859375,-55.4375,-18.75,62.96875,0.0,0.0,0.0
1696286851839,-0.19628906,0.021484375,0.09082031,-54.53125,38.25,22.1875,-62.375,-38.0625,-146.3125
1696286851874,-0.3720703,0.047851562,0.2685547,-87.53125,93.75,4.8125,0.0,0.0,0.0
1696286851963,-0.86816406,0.015625,0.79296875,-93.59375,104.125,-35.0625,0.0,0.0,0.0
1696286851965,-1.6601562,0.32910156,2.0,-97.1875,-12.34375,-30.71875,0.0,0.0,0.0
1696286851991,-0.58691406,0.31347656,0.5107422,-64.09375,19.03125,-11.96875,0.0,0.0,0.0
1696286852146,-1.1640625,0.83691406,-0.3154297,13.65625,21.53125,-15.875,0.0,0.0,0.0
1696286852148,-1.3642578,0.6201172,0.48828125,-96.5,-105.4375,15.3125,0.0,0.0,0.0
1696286852149,-0.86621094,0.20019531,-0.3828125,-244.40625,6.5,33.625,0.0,0.0,0.0
1696286852170,-1.3095703,0.25097656,-0.22851562,-274.90625,76.09375,50.46875,0.0,0.0,0.0
1696286852201,-1.4638672,-0.24511719,-0.18945312,-170.65625,186.875,15.5625,0.0,0.0,0.0
1696286852231,-1.15625,-0.72265625,0.07324219,-227.1875,66.21875,-38.40625,0.0,0.0,0.0
1696286852293,-0.89941406,-0.016601562,0.19921875,-309.15625,82.125,-13.75,0.0,0.0,0.0
1696286852320,-1.0380859,-0.29492188,-0.23339844,-286.40625,50.65625,-15.03125,0.0,0.0,0.0
1696286852354,-0.8486328,-0.34179688,0.041015625,-100.78125,36.78125,4.6875,-67.375,-67.0,-168.625
1696286852410,-1.0703125,-0.33007812,0.31835938,-120.3125,1.6875,4.9375,0.0,0.0,0.0
1696286852443,-0.9628906,-0.4169922,0.055664062,3.28125,-35.65625,6.8125,0.0,0.0,0.0
1696286852472,-0.75097656,-0.16015625,0.24121094,24.875,4.0,-13.03125,0.0,0.0,0.0
1696286852535,-0.9453125,-0.26464844,0.20800781,-66.40625,-6.96875,-8.8125,0.0,0.0,0.0
1696286852561,-0.890625,-0.296875,0.057617188,-104.09375,-26.5,0.03125,0.0,0.0,0.0
1696286852591,-1.0869141,-0.11621094,0.055664062,-82.21875,8.09375,7.25,0.0,0.0,0.0
1696286852655,-1.1972656,-0.0146484375,0.11425781,-115.125,22.75,27.28125,0.0,0.0,0.0
1696286852679,-1.4423828,-0.38964844,-0.044921875,-121.84375,9.875,28.1875,0.0,0.0,0.0
1696286852711,-1.7148438,-0.09375,-0.01171875,-109.15625,6.09375,40.875,0.0,0.0,0.0
1696286852777,-1.2304688,0.109375,0.15332031,-56.21875,19.875,31.78125,0.0,0.0,0.0
1696286852832,-0.99609375,0.40039062,0.43847656,-91.375,-117.375,65.46875,0.0,0.0,0.0
1696286852835,-1.4033203,-0.12011719,0.25390625,-217.84375,-134.71875,55.53125,-75.4375,-58.3125,-184.125
1696286852891,-1.0048828,-0.3544922,-0.23046875,-205.09375,-120.875,16.65625,0.0,0.0,0.0
1696286852919,-1.0927734,0.11328125,0.2109375,-52.625,-168.03125,7.5,0.0,0.0,0.0
1696286852950,-1.1044922,-0.099609375,0.06347656,87.25,-213.53125,29.46875,0.0,0.0,0.0
1696286853012,-1.0800781,-0.16113281,0.3720703,97.875,-172.6875,22.125,0.0,0.0,0.0
1696286853042,-0.67871094,0.30371094,0.15527344,121.875,-192.59375,53.34375,0.0,0.0,0.0
1696286853070,-0.40527344,0.037109375,0.19042969,103.8125,-206.0625,53.6875,0.0,0.0,0.0
1696286853128,-0.34277344,0.14160156,0.18359375,67.3125,-137.03125,20.375,0.0,0.0,0.0
1696286853159,-0.046875,0.23730469,0.28320312,92.625,-98.90625,9.8125,0.0,0.0,0.0
1696286853191,-0.09863281,0.3046875,0.5566406,30.875,-41.40625,1.3125,0.0,0.0,0.0
1696286853252,-0.26660156,0.38183594,0.82128906,-27.78125,-2.875,-14.25,0.0,0.0,0.0
1696286853281,-0.32617188,0.2890625,1.0634766,-15.59375,43.375,-47.4375,0.0,0.0,0.0
1696286853312,-0.7783203,0.984375,0.96777344,-38.65625,18.46875,0.90625,0.0,0.0,0.0
1696286853377,-1.203125,0.072265625,0.5917969,-57.09375,89.03125,-60.875,-57.0,-40.9375,-158.0
1696286853401,-0.5966797,0.54296875,0.703125,-22.21875,109.0,-40.84375,0.0,0.0,0.0
1696286853429,-0.8408203,0.2548828,0.40039062,-124.78125,158.0625,-37.3125,0.0,0.0,0.0
1696286853553,-1.2763672,-0.0029296875,0.3564453,-108.28125,149.15625,-45.78125,0.0,0.0,0.0
1696286853554,-1.0507812,0.022460938,0.27246094,-90.28125,119.25,-28.03125,0.0,0.0,0.0
1696286853555,-1.0507812,0.049804688,0.31933594,-105.1875,124.3125,6.5625,0.0,0.0,0.0
1696286853671,-1.046875,-0.051757812,0.13476562,-8.8125,101.71875,13.40625,0.0,0.0,0.0
1696286853674,-1.0595703,-0.0068359375,0.20800781,4.9375,110.28125,7.25,0.0,0.0,0.0
1696286853675,-0.9160156,-0.14355469,0.064453125,34.28125,94.78125,1.5,0.0,0.0,0.0
1696286853729,-0.8984375,-0.23144531,0.25878906,94.59375,75.0625,-19.5,0.0,0.0,0.0
1696286853762,-0.6582031,-0.17382812,0.42089844,-1.46875,78.34375,-57.8125,0.0,0.0,0.0
1696286853792,-0.80371094,-0.111328125,0.25097656,-55.9375,60.65625,-62.8125,0.0,0.0,0.0
1696286853849,-0.8515625,0.21875,0.17382812,-0.875,32.15625,-27.71875,-72.0,-53.8125,-191.75
1696286853884,-1.1503906,-0.13964844,0.27441406,73.09375,49.3125,5.125,0.0,0.0,0.0
1696286853909,-1.3515625,-0.41992188,0.41992188,44.28125,63.09375,18.90625,0.0,0.0,0.0
1696286853970,-1.3183594,-0.14160156,0.017578125,-125.125,58.8125,-18.625,0.0,0.0,0.0
1696286853999,-1.7304688,-0.022460938,-0.064453125,-173.53125,57.53125,-8.0,0.0,0.0,0.0
1696286854059,-1.2128906,0.0,-0.16894531,-8.75,-57.375,6.875,0.0,0.0,0.0
1696286854091,-0.9892578,0.3251953,0.21386719,140.125,-92.0625,41.125,0.0,0.0,0.0
1696286854118,-1.3007812,0.18554688,0.9355469,203.65625,-149.375,85.625,0.0,0.0,0.0
1696286854157,-0.9453125,-0.31933594,-0.009765625,-82.84375,-112.0,44.34375,0.0,0.0,0.0
1696286854210,-1.3974609,-0.009765625,-0.7158203,-284.0,-43.96875,9.8125,0.0,0.0,0.0
1696286854239,-0.97558594,0.2734375,0.03125,132.0625,-187.15625,27.03125,0.0,0.0,0.0
1696286854269,-0.9355469,-0.15234375,0.42382812,183.40625,-208.03125,77.75,0.0,0.0,0.0
1696286854333,-0.9160156,0.27148438,0.07714844,25.25,-166.34375,47.78125,0.0,0.0,0.0
1696286854359,-0.5107422,0.07128906,0.08886719,158.0,-190.25,47.53125,-72.0,-53.5,-175.25
1696286854422,-0.28515625,0.1953125,0.17285156,68.90625,-149.625,39.90625,0.0,0.0,0.0
1696286854480,-0.29101562,0.25390625,0.2841797,66.15625,-107.0,27.5,0.0,0.0,0.0
1696286854543,-0.31640625,0.20507812,0.49316406,24.75,-65.625,7.8125,0.0,0.0,0.0
1696286854547,-0.31445312,0.38476562,0.6611328,-12.21875,-13.4375,-16.125,0.0,0.0,0.0
1696286854569,-0.42773438,0.47753906,0.92089844,-38.84375,18.28125,-45.4375,0.0,0.0,0.0
1696286854601,-0.7607422,0.37109375,0.7080078,-24.75,29.78125,-36.46875,0.0,0.0,0.0
1696286854660,-1.0322266,0.21777344,0.99316406,-42.4375,69.75,-81.0,0.0,0.0,0.0
1696286854723,-0.97265625,0.4921875,0.85546875,-32.65625,99.90625,-55.375,0.0,0.0,0.0
1696286854724,-0.8125,0.21289062,0.484375,-104.375,139.9375,-75.09375,0.0,0.0,0.0
1696286854783,-1.0371094,0.107421875,0.35546875,-111.03125,135.78125,-60.625,0.0,0.0,0.0
1696286854810,-1.1005859,0.052734375,0.25976562,-81.9375,110.28125,-31.09375,0.0,0.0,0.0
1696286854841,-0.8808594,0.029296875,0.26757812,-111.84375,117.90625,-9.34375,-68.875,-64.4375,-179.0
1696286854869,-1.0146484,-0.028320312,0.00390625,-21.6875,134.5625,27.03125,0.0,0.0,0.0
1696286854959,-0.98046875,-0.15332031,0.16308594,65.15625,131.625,10.59375,0.0,0.0,0.0
1696286854961,-0.81933594,-0.080078125,0.12011719,32.8125,88.5,-1.40625,0.0,0.0,0.0
1696286854989,-0.7441406,-0.24316406,0.20019531,116.9375,61.5625,-32.4375,0.0,0.0,0.0
1696286855053,-0.8144531,-0.030273438,0.24609375,41.65625,76.9375,-66.0,0.0,0.0,0.0
1696286855080,-1.0449219,0.115234375,0.5048828,-64.53125,53.15625,-61.90625,0.0,0.0,0.0
1696286855142,-0.6376953,0.056640625,0.20410156,-15.53125,1.09375,-31.25,0.0,0.0,0.0
1696286855171,-1.1630859,-0.18554688,0.21679688,11.03125,41.5625,-6.125,0.0,0.0,0.0
1696286855203,-1.3818359,-0.25390625,0.34179688,6.9375,53.8125,-6.90625,0.0,0.0,0.0
1696286855260,-1.078125,-0.07128906,0.076171875,-118.53125,51.875,-7.65625,0.0,0.0,0.0
1696286855291,-1.3017578,-0.29882812,-0.14160156,-135.875,39.21875,11.9375,0.0,0.0,0.0
1696286855320,-1.6445312,-0.0546875,-0.18554688,-78.125,-28.6875,35.4375,0.0,0.0,0.0
1696286855352,-1.2255859,0.0625,-0.109375,17.0,-57.625,11.71875,-68.875,-65.9375,-203.875
1696286855410,-1.4169922,0.2783203,0.55078125,277.375,-139.65625,64.0625,0.0,0.0,0.0
1696286855443,-1.2490234,0.14257812,0.8144531,184.5625,-239.625,122.71875,0.0,0.0,0.0
1696286855471,-1.4267578,0.20117188,-0.46484375,-402.96875,-98.28125,30.5625,0.0,0.0,0.0
1696286855529,-1.3847656,0.22070312,-0.49121094,31.0625,-143.625,52.78125,0.0,0.0,0.0
1696286855562,-1.2011719,-0.076171875,0.67089844,233.25,-305.9375,78.15625,0.0,0.0,0.0
1696286855590,-0.8720703,0.0126953125,-0.13867188,55.59375,-123.3125,54.4375,0.0,0.0,0.0
1696286855650,-0.35351562,0.15136719,-0.09472656,115.875,-191.71875,69.4375,0.0,0.0,0.0
1696286855681,-0.2783203,0.0234375,0.111328125,120.15625,-156.5,73.15625,0.0,0.0,0.0
1696286855713,-0.036132812,0.2529297,0.18652344,80.5625,-115.625,46.6875,0.0,0.0,0.0
1696286855804,-0.19238281,0.37890625,0.54003906,30.5,-55.25,9.6875,0.0,0.0,0.0
1696286855806,-0.26367188,0.55078125,0.72558594,6.09375,-3.75,-17.71875,0.0,0.0,0.0
1696286855835,-0.3232422,0.49023438,0.8798828,-23.09375,53.5,-53.3125,-66.4375,-48.5625,-142.375
1696286855892,-0.9609375,0.95410156,0.3076172,-47.5,28.84375,-14.1875,0.0,0.0,0.0
1696286855920,-1.0341797,0.13574219,1.0166016,-36.34375,41.3125,-90.34375,0.0,0.0,0.0
1696286855954,-0.64160156,0.4765625,0.9238281,-100.125,102.15625,-91.875,0.0,0.0,0.0
1696286856015,-1.0546875,0.28027344,0.57128906,-153.6875,154.46875,-90.46875,0.0,0.0,0.0
1696286856041,-1.1601562,0.17578125,0.18945312,-141.3125,155.125,-32.25,0.0,0.0,0.0
1696286856070,-1.0234375,0.0107421875,0.15136719,-126.1875,142.1875,-17.84375,0.0,0.0,0.0
1696286856160,-0.91503906,-0.032226562,0.091796875,-56.03125,168.375,16.28125,0.0,0.0,0.0
1696286856192,-1.0166016,-0.048828125,0.13964844,-20.40625,160.3125,17.375,0.0,0.0,0.0
1696286856195,-0.7939453,-0.32226562,0.091796875,-55.125,126.09375,-8.0625,0.0,0.0,0.0
1696286856279,-0.75878906,-0.4873047,-0.029296875,91.84375,23.4375,-11.625,0.0,0.0,0.0
1696286856281,-0.7080078,-0.18164062,-0.034179688,71.75,11.15625,-66.3125,0.0,0.0,0.0
1696286856312,-1.1181641,0.19628906,0.1796875,-128.0,118.875,-95.71875,0.0,0.0,0.0
1696286856463,-1.09375,0.14746094,0.3671875,59.625,5.34375,-16.4375,-78.4375,-77.6875,-188.0
1696286856523,-1.0419922,-0.38867188,0.09667969,-80.8125,-17.84375,-3.0625,0.0,0.0,0.0
1696286856525,-1.0849609,-0.23730469,0.038085938,-42.8125,-15.34375,-3.4375,0.0,0.0,0.0
1696286856526,-1.1904297,-0.11230469,-0.103515625,-125.75,53.15625,-18.9375,0.0,0.0,0.0
1696286856527,-1.3105469,0.0146484375,-0.07421875,-170.84375,27.09375,-7.78125,0.0,0.0,0.0
1696286856553,-1.6728516,-0.29492188,-0.13769531,-18.875,-23.5,42.53125,0.0,0.0,0.0
1696286856611,-1.5126953,-0.009765625,-0.2109375,-73.8125,-9.15625,25.9375,0.0,0.0,0.0
1696286856639,-1.0703125,0.22753906,0.09472656,26.15625,-39.4375,20.3125,0.0,0.0,0.0
1696286856699,-1.3798828,0.25585938,0.6826172,200.5,-188.625,72.375,0.0,0.0,0.0
1696286856732,-0.87890625,0.58984375,0.32617188,-90.40625,-204.1875,103.0,0.0,0.0,0.0
1696286856759,-0.9111328,0.41503906,-0.6953125,-394.0,-98.46875,11.28125,0.0,0.0,0.0
1696286856791,-0.79589844,0.068359375,-0.43359375,-76.375,-120.5625,69.0,0.0,0.0,0.0
1696286856913,-0.7871094,0.049804688,-0.23925781,225.5625,-62.09375,112.59375,-87.875,-68.9375,-182.625
1696286856941,-0.625,0.23730469,0.3798828,63.59375,-125.0625,70.25,0.0,0.0,0.0
1696286856947,-0.35839844,0.30566406,-0.10058594,-57.21875,-52.4375,85.75,0.0,0.0,0.0
1696286856951,-0.484375,0.05078125,-0.034179688,-47.1875,-11.0,72.3125,0.0,0.0,0.0
1696286857004,-0.40527344,0.055664062,0.068359375,-48.0,8.40625,40.5625,0.0,0.0,0.0
1696286857030,-0.546875,0.083984375,0.30273438,-85.53125,59.96875,5.0,0.0,0.0,0.0
1696286857090,-0.7988281,0.25390625,0.5986328,-139.3125,76.9375,-22.65625,0.0,0.0,0.0
1696286857122,-1.0546875,-0.08496094,1.0058594,-110.0,60.09375,-50.5,0.0,0.0,0.0
1696286857150,-0.828125,-0.0126953125,0.9707031,-81.5625,38.625,-49.03125,0.0,0.0,0.0
1696286857180,-0.84277344,0.1328125,0.42089844,-55.8125,57.46875,-46.53125,0.0,0.0,0.0
1696286857245,-2.0,0.27734375,0.6308594,-19.5,8.65625,-37.0,0.0,0.0,0.0
1696286857270,-0.48828125,0.625,-0.0546875,-77.84375,-19.375,-41.15625,0.0,0.0,0.0
1696286857305,-0.7792969,0.5,-0.103515625,-208.6875,30.6875,12.75,0.0,0.0,0.0
1696286857364,-1.2919922,0.036132812,-0.23339844,-63.25,104.40625,43.875,-79.9375,-70.9375,-183.8125
1696286857389,-1.1259766,-0.07421875,0.005859375,-123.0625,113.625,11.71875,0.0,0.0,0.0
1696286857422,-0.98828125,-0.31933594,-0.05078125,-287.75,76.8125,-5.625,0.0,0.0,0.0
1696286857484,-1.0302734,-0.4140625,-0.043945312,-162.0,4.75,-0.25,0.0,0.0,0.0
1696286857512,-0.9453125,-0.14453125,-0.056640625,-69.84375,23.90625,7.125,0.0,0.0,0.0
1696286857543,-0.8984375,-0.20410156,0.1328125,-11.125,43.8125,3.34375,0.0,0.0,0.0
1696286857601,-0.9003906,-0.18847656,0.265625,-96.5625,58.6875,-0.6875,0.0,0.0,0.0
1696286857630,-0.8857422,-0.04296875,0.13378906,-141.5,36.4375,7.5625,0.0,0.0,0.0
1696286857661,-0.99121094,-0.3095703,0.09765625,-124.53125,41.4375,14.8125,0.0,0.0,0.0
1696286857734,-1.0537109,-0.26757812,0.3701172,-85.59375,74.4375,-7.71875,0.0,0.0,0.0
1696286857747,-1.015625,-0.051757812,0.25195312,-142.65625,-28.8125,-21.375,0.0,0.0,0.0
1696286857779,-1.171875,0.03515625,0.22851562,-114.9375,-51.34375,-4.03125,0.0,0.0,0.0
1696286857849,-1.3515625,0.13867188,0.44433594,-145.875,-170.3125,4.4375,-74.375,-60.4375,-214.6875
1696286857873,-1.5966797,0.6152344,0.23632812,-89.125,-231.40625,28.5,0.0,0.0,0.0
1696286857903,-1.640625,0.5546875,-0.17382812,-76.75,-228.59375,35.5,0.0,0.0,0.0
1696286857961,-1.8261719,-0.087890625,0.17285156,182.71875,-245.875,136.8125,0.0,0.0,0.0
1696286857993,-1.4755859,-0.0546875,0.56640625,47.78125,-192.8125,151.34375,0.0,0.0,0.0
1696286858021,-0.3095703,0.5205078,0.10058594,162.46875,-210.53125,179.0625,0.0,0.0,0.0
1696286858085,-0.25878906,0.23339844,0.43164062,84.28125,-139.25,136.09375,0.0,0.0,0.0
1696286858111,-0.4501953,0.18652344,0.46972656,0.03125,-74.84375,62.65625,0.0,0.0,0.0
1696286858142,-0.16894531,0.3544922,0.41308594,15.5625,-44.5625,46.375,0.0,0.0,0.0
1696286858201,-0.15039062,0.35839844,0.5595703,-1.65625,-9.96875,21.53125,0.0,0.0,0.0
1696286858233,-0.078125,0.48046875,0.609375,-24.6875,10.65625,-2.03125,0.0,0.0,0.0
1696286858260,-0.16992188,0.40722656,0.6875,-22.34375,20.0625,-12.53125,0.0,0.0,0.0
1696286858355,-0.1640625,0.5908203,0.7636719,-47.625,42.78125,-14.84375,0.0,0.0,0.0
1696286858357,-0.91308594,1.4921875,1.1699219,-44.4375,27.09375,43.375,-63.75,-31.75,-155.3125
1696286858382,-0.8857422,0.33007812,0.7294922,-66.0625,88.25,-32.5,0.0,0.0,0.0
1696286858443,-0.53808594,0.65527344,0.92285156,-98.71875,92.6875,-21.5625,0.0,0.0,0.0
1696286858470,-0.9716797,0.33496094,0.58984375,-194.03125,114.96875,-15.53125,0.0,0.0,0.0
1696286858501,-0.83203125,0.123046875,0.4736328,-148.5625,127.3125,10.71875,0.0,0.0,0.0
1696286858566,-0.72558594,0.01171875,0.36816406,-120.5,123.59375,5.78125,0.0,0.0,0.0
1696286858591,-1.1035156,0.0625,0.3876953,-129.21875,144.09375,-26.9375,0.0,0.0,0.0
1696286858622,-1.0556641,0.046875,0.34277344,-104.3125,142.5625,-22.34375,0.0,0.0,0.0
1696286858684,-0.93066406,0.0546875,0.2998047,-145.875,120.78125,-0.1875,0.0,0.0,0.0
1696286858709,-0.79785156,-0.12011719,0.11621094,-81.125,101.59375,17.625,0.0,0.0,0.0
1696286858805,-0.8457031,-0.14648438,0.24902344,-58.25,90.25,35.03125,0.0,0.0,0.0
1696286858812,-0.87597656,-0.4658203,0.29882812,17.625,53.15625,20.3125,0.0,0.0,0.0
1696286858829,-0.7626953,-0.27246094,0.453125,55.09375,20.4375,-16.8125,-79.0625,-49.3125,-183.375
1696286858859,-0.7685547,-0.13867188,0.33789062,-25.90625,30.875,-24.0,0.0,0.0,0.0
1696286858922,-1.0927734,-0.08203125,0.3486328,-8.5,27.6875,-9.65625,0.0,0.0,0.0
1696286858981,-1.3251953,-0.022460938,0.17480469,-1.125,42.09375,7.5625,0.0,0.0,0.0
1696286858983,-1.3876953,-0.040039062,0.1015625,-69.34375,89.46875,9.5,0.0,0.0,0.0
1696286859079,-1.6435547,-0.25097656,0.09472656,-28.875,56.5625,21.03125,0.0,0.0,0.0
1696286859099,-1.3427734,0.30664062,0.28320312,-11.90625,71.75,25.125,0.0,0.0,0.0
1696286859166,-1.1904297,0.38476562,0.7080078,22.5,-104.625,51.125,0.0,0.0,0.0
1696286859192,-0.9267578,0.27246094,0.71875,-36.28125,-113.65625,40.5625,0.0,0.0,0.0
1696286859219,-1.3486328,-0.045898438,-0.45996094,-390.15625,-87.125,-16.1875,0.0,0.0,0.0
1696286859221,-1.1669922,0.17285156,-0.32421875,7.0625,-156.5,20.125,0.0,0.0,0.0
1696286859285,-1.1660156,-0.28808594,0.7792969,296.25,-230.53125,64.8125,0.0,0.0,0.0
1696286859310,-0.9941406,-0.0087890625,0.078125,87.03125,-165.1875,38.9375,0.0,0.0,0.0
1696286859342,-0.50683594,0.3310547,0.03125,99.53125,-188.625,35.15625,-73.8125,-28.4375,-164.875
1696286859401,-0.09765625,-0.00390625,0.28320312,133.65625,-188.84375,35.6875,0.0,0.0,0.0
1696286859463,-0.078125,0.1796875,0.10644531,78.96875,-118.0,22.625,0.0,0.0,0.0
1696286859490,-0.2607422,0.1953125,0.2939453,25.5625,-64.46875,-3.375,0.0,0.0,0.0
1696286859525,-0.29296875,0.36621094,0.59375,19.03125,-47.0625,-23.625,0.0,0.0,0.0
1696286859550,-0.4111328,0.21972656,0.8154297,-8.0,-17.40625,-55.125,0.0,0.0,0.0
1696286859583,-0.47460938,0.29492188,0.94433594,-2.8125,24.46875,-67.65625,0.0,0.0,0.0
1696286859642,-0.5957031,0.42382812,0.39941406,-35.34375,85.375,-73.8125,0.0,0.0,0.0
1696286859670,-1.3505859,0.75,1.4824219,27.4375,44.90625,-35.0625,0.0,0.0,0.0
1696286859702,-1.0146484,0.46777344,0.032226562,-96.75,128.78125,-60.5,0.0,0.0,0.0
1696286859823,-0.453125,0.484375,0.35839844,-103.59375,146.46875,-63.1875,0.0,0.0,0.0
1696286859826,-1.1806641,0.13183594,0.30371094,-144.3125,159.40625,-50.1875,0.0,0.0,0.0
1696286859828,-0.96191406,0.15820312,0.19238281,-129.90625,152.09375,-19.53125,-75.75,-30.4375,-170.625
1696286859883,-0.7792969,0.005859375,0.11328125,-113.53125,150.4375,20.1875,0.0,0.0,0.0
1696286859911,-0.9980469,-0.15234375,-0.06542969,9.125,125.71875,28.3125,0.0,0.0,0.0
1696286859941,-0.9667969,-0.43066406,0.032226562,-11.3125,138.53125,-19.96875,0.0,0.0,0.0
1696286860006,-0.96972656,-0.38378906,0.39746094,101.96875,0.46875,-33.71875,0.0,0.0,0.0
1696286860031,-0.87109375,-0.11230469,0.24707031,75.375,26.0,-49.34375,0.0,0.0,0.0
1696286860060,-0.7792969,0.22851562,0.36132812,-44.75,53.9375,-42.8125,0.0,0.0,0.0
1696286860127,-0.90234375,0.0068359375,0.38378906,98.9375,-18.3125,7.90625,0.0,0.0,0.0
1696286860181,-0.8652344,-0.3466797,0.23632812,74.09375,-16.1875,5.21875,0.0,0.0,0.0
1696286860183,-1.2001953,-0.103515625,0.18164062,-0.4375,26.96875,-17.21875,0.0,0.0,0.0
1696286860242,-1.3955078,0.059570312,0.020507812,-73.125,43.0625,-5.25,0.0,0.0,0.0
1696286860272,-1.5517578,-0.040039062,-0.03515625,-102.90625,83.40625,-8.125,0.0,0.0,0.0
1696286860301,-1.5283203,0.12402344,-0.009765625,-81.8125,79.6875,16.9375,0.0,0.0,0.0
1696286860363,-1.1933594,0.057617188,0.24414062,49.59375,-10.9375,21.71875,-83.875,-33.875,-195.5
1696286860390,-1.1396484,0.49609375,0.7734375,96.40625,-101.46875,47.71875,0.0,0.0,0.0
1696286860420,-1.3632812,0.2548828,0.7578125,-83.28125,-109.875,68.09375,0.0,0.0,0.0
1696286860485,-1.3867188,0.23144531,-0.6640625,-402.40625,-66.375,34.46875,0.0,0.0,0.0
1696286860510,-1.1962891,0.33398438,-0.50878906,-53.53125,-146.5625,28.84375,0.0,0.0,0.0
1696286860540,-1.1005859,-0.111328125,0.5078125,262.1875,-227.125,76.78125,0.0,0.0,0.0
1696286860635,-0.8203125,-0.07128906,0.01953125,17.6875,-200.53125,54.1875,0.0,0.0,0.0
1696286860640,-0.5703125,0.20800781,0.15039062,101.375,-150.78125,37.65625,0.0,0.0,0.0
1696286860659,-0.22363281,0.034179688,0.37109375,137.375,-183.125,68.96875,0.0,0.0,0.0
1696286860750,-0.35546875,0.2685547,0.18359375,56.5,-113.90625,31.96875,0.0,0.0,0.0
1696286860753,-0.29882812,0.34472656,0.36328125,51.5,-82.90625,16.65625,0.0,0.0,0.0
1696286860779,-0.23828125,0.49414062,0.73046875,15.25,-31.75,4.0,0.0,0.0,0.0
1696286860844,-0.3310547,0.63671875,0.8955078,-15.9375,25.625,-24.75,-61.625,-12.4375,-159.0625
1696286860872,-0.25878906,0.7705078,0.38964844,-36.40625,53.28125,-19.125,0.0,0.0,0.0
1696286860907,-1.1132812,0.1015625,1.7958984,-43.15625,42.84375,-49.28125,0.0,0.0,0.0
1696286860964,-0.7998047,1.046875,0.73535156,-103.28125,91.0625,-53.125,0.0,0.0,0.0
1696286860990,-0.6435547,0.17480469,0.2734375,-178.78125,156.59375,-62.15625,0.0,0.0,0.0
1696286861021,-1.4140625,-0.09472656,0.2705078,-167.8125,174.59375,-78.625,0.0,0.0,0.0
1696286861204,-0.91015625,0.10449219,0.17773438,-128.875,139.4375,-32.4375,0.0,0.0,0.0
1696286861206,-0.8251953,-0.015625,0.09667969,-50.0625,182.71875,8.71875,0.0,0.0,0.0
1696286861207,-1.0546875,-0.119140625,0.048828125,24.8125,135.40625,16.65625,0.0,0.0,0.0
1696286861208,-0.9667969,0.01171875,0.1328125,-81.3125,109.96875,-2.6875,0.0,0.0,0.0
1696286861259,-0.68359375,-0.19726562,-0.030273438,-40.3125,78.96875,-6.71875,0.0,0.0,0.0
1696286861261,-1.0009766,-0.46875,-0.12695312,50.09375,-8.0,3.46875,0.0,0.0,0.0
1696286861322,-0.8388672,-0.02734375,0.4404297,91.96875,37.875,-31.9375,0.0,0.0,0.0
1696286861353,-0.8378906,-0.055664062,0.21386719,-81.5625,18.46875,-26.9375,-86.5625,-34.0,-188.125
1696286861382,-0.91503906,0.15722656,0.22753906,-38.34375,25.25,-30.90625,0.0,0.0,0.0
1696286861441,-1.0380859,-0.28320312,0.44335938,31.96875,20.90625,3.90625,0.0,0.0,0.0
1696286861468,-1.2685547,-0.09765625,0.11230469,-72.46875,22.4375,-6.25,0.0,0.0,0.0
1696286861502,-1.2294922,0.03125,0.13378906,10.46875,52.28125,7.5,0.0,0.0,0.0
1696286861597,-1.4101562,-0.12792969,0.07324219,-21.3125,29.28125,22.5625,0.0,0.0,0.0
1696286861602,-1.7451172,-0.22558594,-0.12207031,-77.28125,20.625,14.21875,0.0,0.0,0.0
1696286861620,-1.2060547,0.061523438,0.013671875,-2.6875,-20.09375,27.21875,0.0,0.0,0.0
1696286861717,-1.0878906,0.24511719,0.60546875,132.5625,-67.03125,34.84375,0.0,0.0,0.0
1696286861721,-1.1679688,0.31835938,0.6542969,28.625,-96.6875,73.90625,0.0,0.0,0.0
1696286861743,-1.2685547,0.13378906,0.22558594,-176.15625,-119.15625,41.78125,0.0,0.0,0.0
1696286861804,-1.3310547,0.10644531,-0.57421875,-193.9375,-137.46875,8.71875,0.0,0.0,0.0
1696286861832,-1.0712891,0.024414062,-0.06738281,211.71875,-255.03125,90.1875,-84.875,-30.6875,-176.0
1696286861863,-0.9560547,0.03125,0.703125,192.0,-228.71875,119.125,0.0,0.0,0.0
1696286861923,-0.5019531,0.4736328,-0.125,63.875,-187.21875,80.0,0.0,0.0,0.0
1696286861949,-0.55566406,0.009765625,0.29101562,136.21875,-207.28125,96.0625,0.0,0.0,0.0
1696286861984,-0.27441406,0.3330078,0.18457031,68.59375,-145.59375,45.625,0.0,0.0,0.0
1696286862043,-0.16308594,0.31054688,0.3515625,55.78125,-81.875,41.71875,0.0,0.0,0.0
1696286862073,-0.23730469,0.39941406,0.4814453,24.21875,-27.40625,19.8125,0.0,0.0,0.0
1696286862100,-0.09277344,0.48339844,0.6777344,-45.0625,19.15625,-7.59375,0.0,0.0,0.0
1696286862197,-0.29589844,0.33984375,0.89160156,-22.0,50.34375,-36.34375,0.0,0.0,0.0
1696286862200,-0.28320312,0.8125,0.5703125,-7.71875,35.625,-48.78125,0.0,0.0,0.0
1696286862221,-1.1689453,0.16113281,1.5273438,-60.0,-37.90625,-85.9375,0.0,0.0,0.0
1696286862282,-0.37109375,1.2558594,0.8222656,-83.5,62.78125,-62.5625,0.0,0.0,0.0
1696286862313,-0.5498047,0.4638672,0.3935547,-138.625,120.03125,-80.59375,0.0,0.0,0.0
1696286862344,-1.1083984,0.375,0.3642578,-166.875,152.28125,-32.65625,-62.6875,-19.625,-155.875
1696286862403,-1.0205078,0.37109375,0.28320312,-203.4375,150.75,-29.875,0.0,0.0,0.0
1696286862432,-0.9042969,0.19433594,0.06738281,-164.0625,158.125,-24.1875,0.0,0.0,0.0
1696286862461,-0.96972656,-0.061523438,0.06347656,-144.53125,189.1875,8.59375,0.0,0.0,0.0
1696286862519,-1.1396484,-0.19335938,0.0390625,-109.875,185.90625,8.28125,0.0,0.0,0.0
1696286862548,-1.2519531,-0.3232422,0.06933594,-156.4375,168.5,-5.875,0.0,0.0,0.0
1696286862580,-0.71972656,-0.234375,0.03125,-54.40625,39.90625,-8.125,0.0,0.0,0.0
1696286862641,-0.8408203,-0.19042969,0.03515625,25.3125,23.71875,-17.96875,0.0,0.0,0.0
1696286862670,-0.8105469,0.109375,0.16894531,-6.4375,39.46875,-25.53125,0.0,0.0,0.0
1696286862700,-0.8408203,0.08203125,0.20019531,-39.875,48.75,-7.03125,0.0,0.0,0.0
1696286862764,-0.9589844,-0.17675781,0.095703125,-63.6875,18.84375,14.28125,0.0,0.0,0.0
1696286862789,-0.8769531,-0.15820312,0.021484375,-62.5,21.78125,16.65625,0.0,0.0,0.0
1696286862820,-1.0351562,-0.17480469,0.072265625,-31.25,41.25,7.125,-84.4375,-42.5625,-182.3125
1696286862883,-1.0625,-0.2861328,0.41503906,-70.28125,109.3125,-14.46875,0.0,0.0,0.0
1696286862910,-1.1855469,-0.053710938,0.28027344,-150.71875,9.625,-40.65625,0.0,0.0,0.0
1696286862943,-1.5136719,-0.07324219,-0.19335938,-138.8125,-92.84375,-38.71875,0.0,0.0,0.0
1696286863001,-1.1728516,0.67578125,0.18457031,-102.96875,-14.90625,-22.46875,0.0,0.0,0.0
1696286863031,-1.1845703,0.38085938,0.13085938,-203.375,-173.0,25.125,0.0,0.0,0.0
1696286863061,-1.2138672,0.6015625,-0.22558594,-271.125,-165.71875,38.8125,0.0,0.0,0.0
1696286863151,-1.1230469,-0.015625,-1.0234375,-118.65625,-157.84375,66.4375,0.0,0.0,0.0
1696286863153,-1.3007812,0.068359375,0.84765625,276.96875,-192.71875,110.34375,0.0,0.0,0.0
1696286863181,-0.68847656,-0.1328125,-0.022460938,50.65625,-115.625,84.53125,0.0,0.0,0.0
1696286863276,-0.58984375,0.23339844,0.03515625,-12.46875,-60.875,66.875,0.0,0.0,0.0
1696286863278,-0.5810547,0.18359375,0.14453125,-10.5625,-14.90625,51.0625,0.0,0.0,0.0
1696286863299,-0.43359375,0.296875,0.18554688,-63.625,43.0,29.46875,0.0,0.0,0.0
1696286863369,-0.6455078,0.16503906,0.43164062,-96.625,80.0,3.59375,-71.125,-34.0,-155.75
1696286863393,-0.96191406,0.047851562,1.0029297,-183.78125,47.65625,-8.625,0.0,0.0,0.0
1696286863421,-0.8691406,0.21582031,0.625,-97.25,31.78125,5.53125,0.0,0.0,0.0
1696286863485,-0.9453125,0.0146484375,0.6845703,-19.59375,42.21875,-3.75,0.0,0.0,0.0
1696286863543,-0.95703125,0.2607422,0.20019531,-146.1875,43.1875,-16.25,0.0,0.0,0.0
1696286863546,-1.6914062,1.0927734,1.21875,-116.71875,5.84375,1.75,0.0,0.0,0.0
1696286863603,-0.4765625,0.22753906,-0.13183594,-138.8125,6.28125,20.8125,0.0,0.0,0.0
1696286863629,-0.9433594,-0.10058594,-0.29296875,-171.9375,52.09375,44.59375,0.0,0.0,0.0
1696286863662,-1.4492188,-0.33398438,-0.0703125,-67.8125,59.625,17.3125,0.0,0.0,0.0
1696286863727,-1.1679688,-0.39941406,0.53027344,-143.875,42.21875,-48.125,0.0,0.0,0.0
1696286863755,-1.0527344,-0.15039062,-0.015625,-310.9375,75.96875,-27.46875,0.0,0.0,0.0
1696286863781,-1.0429688,-0.103515625,-0.13671875,-106.09375,22.875,-13.8125,0.0,0.0,0.0
1696286863843,-0.9091797,-0.2626953,0.080078125,74.8125,26.84375,-0.875,-78.875,-63.125,-179.75
1696286863868,-1.0488281,-0.25585938,0.31445312,-18.03125,29.40625,3.21875,0.0,0.0,0.0
1696286863901,-0.81640625,-0.31152344,0.109375,-31.8125,14.875,-29.0625,0.0,0.0,0.0
1696286863963,-0.8359375,0.119140625,0.22265625,-109.21875,29.34375,-14.59375,0.0,0.0,0.0
1696286863989,-0.7871094,-0.19726562,0.30664062,-66.96875,-7.8125,16.21875,0.0,0.0,0.0
1696286864022,-1.0292969,-0.30273438,0.20214844,-104.875,-0.8125,5.90625,0.0,0.0,0.0
1696286864083,-1.1054688,-0.07421875,0.09082031,-115.25,2.59375,9.5625,0.0,0.0,0.0
1696286864113,-1.2626953,-0.041992188,0.05078125,-73.625,12.4375,19.5625,0.0,0.0,0.0
1696286864142,-1.3818359,-0.055664062,-0.024414062,-95.28125,13.65625,21.28125,0.0,0.0,0.0
1696286864203,-1.5107422,-0.21777344,-0.032226562,-89.625,10.125,24.40625,0.0,0.0,0.0
1696286864229,-1.4326172,-0.25097656,-0.08496094,55.65625,16.65625,26.34375,0.0,0.0,0.0
1696286864260,-0.8623047,0.0107421875,0.35253906,106.78125,-6.0625,31.59375,0.0,0.0,0.0
1696286864322,-0.9667969,0.3203125,0.87890625,9.09375,-119.9375,75.0625,0.0,0.0,0.0
1696286864352,-1.5996094,-0.22851562,0.20996094,-210.65625,-129.96875,36.3125,-85.0625,-56.8125,-181.25
1696286864381,-1.3339844,0.20996094,-0.5576172,-245.1875,-119.59375,-22.78125,0.0,0.0,0.0
1696286864473,-1.0957031,0.21679688,0.0390625,36.59375,-173.21875,21.90625,0.0,0.0,0.0
1696286864476,-1.0419922,-0.19238281,0.52734375,182.28125,-248.71875,58.28125,0.0,0.0,0.0
1696286864501,-0.859375,0.41503906,-0.0390625,66.625,-202.71875,79.8125,0.0,0.0,0.0
1696286864560,-0.7753906,0.08203125,0.34765625,149.875,-187.09375,50.34375,0.0,0.0,0.0
1696286864595,-0.2626953,-0.038085938,0.18847656,92.9375,-184.78125,50.53125,0.0,0.0,0.0
1696286864620,-0.068359375,0.2607422,0.27734375,75.59375,-107.4375,48.1875,0.0,0.0,0.0
1696286864681,-0.3251953,0.24609375,0.37695312,25.4375,-55.0,25.625,0.0,0.0,0.0
1696286864713,-0.11621094,0.3330078,0.73535156,-15.40625,-13.0625,-14.34375,0.0,0.0,0.0
1696286864742,-0.2919922,0.12402344,0.8808594,-8.75,25.375,-37.78125,0.0,0.0,0.0
1696286864862,-0.46191406,0.38867188,1.1162109,-27.59375,27.375,-57.5,-52.375,-33.125,-146.625
1696286864863,-0.75683594,0.22265625,1.0898438,-24.0,94.34375,-84.65625,0.0,0.0,0.0
1696286864864,-1.2822266,0.1953125,0.5839844,-79.71875,111.25,-74.84375,0.0,0.0,0.0
1696286865010,-0.76464844,0.49023438,0.5097656,-65.6875,119.6875,-78.5,0.0,0.0,0.0
1696286865011,-0.6777344,0.2421875,0.37109375,-118.96875,154.9375,-40.46875,0.0,0.0,0.0
1696286865013,-1.3173828,0.087890625,0.2939453,-114.9375,140.25,-11.78125,0.0,0.0,0.0
1696286865013,-1.0488281,0.07421875,0.22167969,-73.375,149.40625,-4.28125,0.0,0.0,0.0
1696286865106,-0.8876953,0.0048828125,0.23535156,-56.09375,114.25,11.71875,0.0,0.0,0.0
1696286865108,-1.0634766,-0.09863281,0.051757812,-29.8125,139.8125,21.90625,0.0,0.0,0.0
1696286865148,-0.8388672,-0.30371094,0.08203125,48.1875,103.0,16.78125,0.0,0.0,0.0
1696286865191,-0.8388672,-0.35058594,0.38378906,137.5625,45.15625,-21.6875,0.0,0.0,0.0
1696286865221,-0.62109375,-0.26757812,0.28808594,45.09375,54.5,-54.53125,0.0,0.0,0.0
1696286865249,-0.7861328,-0.17480469,0.21972656,-51.34375,44.84375,-69.65625,0.0,0.0,0.0
1696286865402,-0.8984375,0.38867188,0.35839844,-68.125,69.6875,-40.375,0.0,0.0,0.0
1696286865404,-1.2207031,-0.15820312,0.4169922,64.5625,-3.1875,18.71875,-79.0625,-52.9375,-180.625
1696286865404,-1.3251953,-0.30371094,0.47851562,-8.3125,19.09375,-2.03125,0.0,0.0,0.0
1696286865432,-1.1845703,0.08984375,0.015625,-176.59375,37.21875,-2.09375,0.0,0.0,0.0
1696286865459,-1.6601562,0.09863281,-0.107421875,-132.21875,49.0625,3.09375,0.0,0.0,0.0
1696286865491,-1.4189453,-0.23144531,-0.18359375,108.5,-44.75,41.25,0.0,0.0,0.0
1696286865552,-0.94140625,-0.0048828125,0.07910156,145.8125,-19.25,28.0625,0.0,0.0,0.0
1696286865581,-1.2060547,0.6123047,0.8886719,121.4375,-142.15625,49.65625,0.0,0.0,0.0
1696286865610,-1.5683594,0.28027344,0.57128906,-112.4375,-170.90625,77.375,0.0,0.0,0.0
1696286865670,-1.4863281,-0.051757812,-0.7685547,-268.3125,-145.15625,9.5,0.0,0.0,0.0
1696286865702,-0.9511719,0.001953125,-0.5283203,120.28125,-152.0,37.15625,0.0,0.0,0.0
1696286865731,-1.1875,-0.32128906,1.2890625,221.46875,-278.34375,60.71875,0.0,0.0,0.0
1696286865819,-0.7089844,0.24902344,0.021484375,102.875,-202.03125,97.53125,0.0,0.0,0.0
1696286865823,-0.45214844,0.057617188,0.001953125,153.125,-190.875,53.5,0.0,0.0,0.0
1696286865882,-0.24023438,0.1015625,0.06542969,113.3125,-141.9375,50.8125,-58.9375,-37.625,-156.1875
1696286865909,-0.076171875,0.3876953,0.31640625,53.28125,-81.8125,23.4375,0.0,0.0,0.0
1696286865940,-0.20019531,0.29785156,0.41992188,-9.90625,-46.28125,-6.125,0.0,0.0,0.0
1696286865970,-0.25390625,0.4013672,0.77246094,-16.5,-17.28125,-31.875,0.0,0.0,0.0
1696286866032,-0.3564453,0.43652344,1.2402344,-4.21875,57.78125,-73.75,0.0,0.0,0.0
1696286866061,-0.62109375,1.1767578,0.8046875,-35.90625,77.8125,-31.875,0.0,0.0,0.0
1696286866089,-1.6826172,0.13476562,0.7988281,-52.6875,99.71875,-61.1875,0.0,0.0,0.0
1696286866153,-0.46875,0.4501953,0.4326172,-77.90625,104.90625,-63.0625,0.0,0.0,0.0
1696286866180,-0.61328125,0.19726562,0.46289062,-110.1875,155.6875,-81.625,0.0,0.0,0.0
1696286866209,-1.3300781,0.06347656,0.34277344,-128.875,128.84375,-54.03125,0.0,0.0,0.0
1696286866389,-0.93066406,0.22460938,0.2841797,-99.25,113.625,-29.4375,0.0,0.0,0.0
1696286866392,-0.8076172,0.13378906,0.31640625,-103.96875,111.5625,3.03125,0.0,0.0,0.0
1696286866393,-0.9785156,0.056640625,0.14160156,-35.125,169.34375,21.96875,-71.125,-51.4375,-172.25
1696286866395,-1.0810547,-0.26171875,-0.01953125,2.25,156.59375,-3.1875,0.0,0.0,0.0
1696286866426,-0.98046875,-0.31835938,-0.015625,103.8125,33.125,-13.625,0.0,0.0,0.0
1696286866449,-0.7451172,-0.15917969,0.09375,123.65625,4.0625,-58.65625,0.0,0.0,0.0
1696286866510,-0.71972656,-0.12109375,0.32714844,10.59375,107.71875,-73.375,0.0,0.0,0.0
1696286866539,-0.73339844,-0.013671875,0.234375,-78.1875,37.8125,-66.65625,0.0,0.0,0.0
1696286866570,-0.9482422,0.034179688,0.020507812,-130.6875,31.59375,-46.9375,0.0,0.0,0.0
1696286866633,-1.5986328,-0.12109375,0.18457031,7.90625,79.5625,-0.75,0.0,0.0,0.0
1696286866660,-1.2871094,-0.2783203,0.6796875,147.09375,94.84375,-16.625,0.0,0.0,0.0
1696286866690,-1.4472656,0.09765625,0.07519531,-238.0,-5.875,13.84375,0.0,0.0,0.0
1696286866755,-1.5664062,0.06347656,-0.31152344,-247.6875,-26.03125,29.90625,0.0,0.0,0.0
1696286866783,-1.1025391,0.1875,-0.32714844,-65.9375,-54.875,28.5625,0.0,0.0,0.0
1696286866813,-1.1269531,0.051757812,-0.07910156,76.53125,-81.375,54.90625,0.0,0.0,0.0
1696286866931,-1.5947266,-0.043945312,0.9482422,523.96875,-272.59375,122.40625,-76.1875,-53.6875,-192.375
1696286866932,-1.0332031,0.14550781,0.09375,-313.3125,-52.125,57.0625,0.0,0.0,0.0
1696286866933,-1.0410156,0.2607422,-0.55371094,-66.0,-209.125,30.25,0.0,0.0,0.0
1696286866993,-1.2021484,-0.17089844,0.9951172,330.0625,-180.125,62.96875,0.0,0.0,0.0
1696286867022,-0.48242188,0.25878906,0.005859375,61.6875,-160.40625,87.09375,0.0,0.0,0.0
1696286867050,-0.32128906,0.08886719,-0.0625,85.5625,-170.3125,92.34375,0.0,0.0,0.0
1696286867126,-0.3935547,0.21386719,0.23535156,64.4375,-156.5,79.4375,0.0,0.0,0.0
1696286867139,-0.5029297,0.11035156,0.31347656,69.625,-126.59375,44.71875,0.0,0.0,0.0
1696286867168,-0.27539062,0.35742188,0.36816406,48.15625,-96.4375,29.9375,0.0,0.0,0.0
1696286867355,-0.3173828,0.4921875,0.62402344,-14.3125,-50.5,2.5,0.0,0.0,0.0
1696286867358,-0.19042969,0.3935547,0.67089844,-37.0625,-6.5,-32.0625,0.0,0.0,0.0
1696286867359,-0.38476562,0.3515625,1.3173828,-47.0,59.0625,-76.0,0.0,0.0,0.0
1696286867360,-0.59375,0.7558594,0.35546875,24.875,114.1875,-49.03125,-56.125,-42.875,-155.75
1696286867380,-1.4316406,0.053710938,0.12695312,-6.59375,107.78125,-82.09375,0.0,0.0,0.0
1696286867410,-0.421875,0.6533203,0.5732422,-49.75,113.15625,-57.03125,0.0,0.0,0.0
1696286867473,-0.7734375,0.23046875,0.29296875,-143.75,159.96875,-63.5625,0.0,0.0,0.0
1696286867500,-1.3398438,0.10546875,0.2890625,-140.6875,142.9375,-28.46875,0.0,0.0,0.0
1696286867532,-1.0664062,0.051757812,0.19433594,-172.625,134.9375,-30.90625,0.0,0.0,0.0
1696286867593,-0.8886719,-0.109375,0.20019531,-92.0,187.90625,-14.96875,0.0,0.0,0.0
1696286867621,-1.0019531,-0.08300781,0.1796875,-110.3125,170.53125,-5.9375,0.0,0.0,0.0
1696286867651,-1.1347656,-0.23339844,0.001953125,-139.125,154.84375,-23.21875,0.0,0.0,0.0
1696286867714,-0.73828125,-0.26757812,-0.11328125,-36.5,51.125,-2.28125,0.0,0.0,0.0
1696286867748,-0.73339844,-0.16601562,-0.051757812,84.40625,34.21875,-8.75,0.0,0.0,0.0
1696286867771,-0.5683594,-0.15722656,0.26367188,117.71875,3.90625,-57.375,0.0,0.0,0.0
1696286867832,-0.87597656,-0.01953125,0.31835938,-33.875,49.0625,-31.15625,0.0,0.0,0.0
1696286867862,-0.890625,-0.5488281,-0.17773438,-187.21875,-6.65625,-28.6875,-66.4375,-62.5,-196.375
1696286867892,-1.3212891,0.08203125,0.23925781,-37.125,39.0,-22.84375,0.0,0.0,0.0
1696286867954,-1.1523438,-0.50390625,0.5986328,2.4375,41.375,-26.25,0.0,0.0,0.0
1696286867981,-1.1943359,0.020507812,-0.16796875,-252.15625,-19.1875,9.9375,0.0,0.0,0.0
1696286868010,-1.4121094,0.08203125,-0.34472656,-138.875,13.78125,-6.0,0.0,0.0,0.0
1696286868104,-1.640625,-0.22753906,-0.20898438,38.3125,-4.15625,37.09375,0.0,0.0,0.0
1696286868106,-1.1591797,-0.040039062,0.0048828125,21.21875,-38.90625,32.46875,0.0,0.0,0.0
1696286868131,-1.1621094,0.025390625,0.2626953,76.9375,-98.46875,57.84375,0.0,0.0,0.0
1696286868191,-1.4013672,0.0029296875,0.37109375,-15.03125,-129.21875,67.375,0.0,0.0,0.0
1696286868219,-1.1494141,0.44726562,-0.33398438,-202.21875,-142.65625,73.71875,0.0,0.0,0.0
1696286868252,-1.2734375,0.19921875,-0.13671875,-184.71875,-15.59375,20.8125,0.0,0.0,0.0
1696286868315,-0.86816406,-0.001953125,-0.23144531,75.90625,-149.4375,84.9375,0.0,0.0,0.0
1696286868340,-0.6875,-0.043945312,0.32421875,9.3125,-123.5625,87.21875,-70.625,-61.3125,-193.125
1696286868370,-0.43847656,0.1015625,-0.3857422,-82.96875,-91.09375,97.28125,0.0,0.0,0.0
1696286868430,-0.4140625,-0.022460938,0.14257812,-9.0,-69.28125,90.5625,0.0,0.0,0.0
1696286868458,-0.34960938,0.045898438,0.05078125,-70.09375,-16.1875,44.125,0.0,0.0,0.0
1696286868492,-0.4326172,-0.11621094,0.21484375,-34.875,22.3125,9.5,0.0,0.0,0.0
1696286868555,-0.48828125,0.13964844,0.6796875,-32.25,59.4375,-19.0625,0.0,0.0,0.0
1696286868580,-0.83984375,0.068359375,0.8339844,-61.0,61.5,-58.90625,0.0,0.0,0.0
1696286868612,-1.0517578,0.11621094,0.5800781,-61.71875,40.03125,-85.34375,0.0,0.0,0.0
1696286868734,-0.8828125,0.49414062,0.43359375,-63.75,35.09375,-60.5625,0.0,0.0,0.0
1696286868739,-2.0,0.30566406,1.3046875,-91.6875,-29.6875,-23.9375,0.0,0.0,0.0
1696286868741,-0.5488281,0.45410156,-0.31152344,-148.4375,-18.15625,-19.59375,0.0,0.0,0.0
1696286868861,-0.88671875,0.2626953,-0.115234375,-85.9375,104.0625,10.84375,0.0,0.0,0.0
1696286868865,-1.3769531,-0.078125,-0.055664062,-74.34375,149.21875,28.90625,0.0,0.0,0.0
1696286868869,-1.1953125,-0.6308594,0.37402344,-95.53125,39.40625,-41.34375,-64.5,-60.25,-195.9375
1696286868911,-0.96777344,-0.10644531,-0.048828125,-269.125,66.5,-21.125,0.0,0.0,0.0
1696286868939,-0.9394531,0.0068359375,-0.3203125,-43.53125,42.28125,1.375,0.0,0.0,0.0
1696286868972,-0.86621094,0.044921875,0.23828125,-8.125,50.03125,9.8125,0.0,0.0,0.0
1696286869032,-0.9121094,-0.17578125,0.053710938,-95.0625,31.71875,22.125,0.0,0.0,0.0
1696286869059,-0.90527344,-0.22851562,0.034179688,-63.96875,27.5625,21.90625,0.0,0.0,0.0
1696286869091,-0.9042969,-0.2607422,0.009765625,-56.40625,35.4375,16.53125,0.0,0.0,0.0
1696286869156,-0.9160156,-0.2607422,0.16894531,-98.96875,74.5625,10.59375,0.0,0.0,0.0
1696286869184,-1.0166016,-0.2998047,0.14550781,-76.4375,43.6875,-0.8125,0.0,0.0,0.0
1696286869210,-1.046875,-0.08984375,0.18359375,-94.5,22.625,-11.125,0.0,0.0,0.0
1696286869273,-1.1826172,0.040039062,0.15332031,-94.25,-15.8125,-5.875,0.0,0.0,0.0
1696286869301,-1.3046875,0.16699219,0.22558594,-113.0625,-26.0625,0.65625,0.0,0.0,0.0
1696286869333,-1.6044922,0.18847656,0.045898438,-180.0,-160.46875,-1.1875,-62.6875,-44.5,-209.3125
1696286869395,-1.3818359,0.66503906,0.13378906,-125.1875,-203.625,19.34375,0.0,0.0,0.0
1696286869420,-1.5332031,0.5751953,0.103515625,-189.21875,-175.375,25.0,0.0,0.0,0.0
1696286869450,-1.484375,-0.07714844,0.115234375,112.53125,-227.25,98.25,0.0,0.0,0.0
1696286869511,-1.3710938,-0.42578125,0.36621094,46.375,-202.34375,112.71875,0.0,0.0,0.0
1696286869540,-0.6611328,0.6513672,0.18066406,154.46875,-243.90625,179.625,0.0,0.0,0.0
1696286869573,-0.42382812,0.12597656,0.4658203,79.5,-187.9375,128.28125,0.0,0.0,0.0
1696286869634,-0.5673828,0.049804688,0.3486328,30.75,-106.28125,81.59375,0.0,0.0,0.0
1696286869662,-0.23730469,0.35058594,0.34179688,54.90625,-78.25,51.3125,0.0,0.0,0.0
1696286869694,-0.119140625,0.3466797,0.36621094,57.40625,-26.8125,25.9375,0.0,0.0,0.0
1696286869808,-0.14453125,0.50097656,0.44921875,-17.15625,9.5,19.625,0.0,0.0,0.0
1696286869810,-0.23046875,0.48339844,0.6816406,-59.53125,32.625,15.0,0.0,0.0,0.0
1696286869817,-0.17871094,0.4013672,0.83691406,-59.28125,50.21875,-1.34375,0.0,0.0,0.0
1696286869870,-0.328125,0.7402344,1.1660156,-60.8125,58.40625,-13.5625,-58.5,-26.9375,-167.125
1696286869906,-0.7158203,0.10546875,0.60839844,67.125,56.25,-1.96875,0.0,0.0,0.0
1696286869938,-0.51953125,0.8232422,0.3232422,-66.90625,131.40625,-9.40625,0.0,0.0,0.0
1696286869990,-0.9160156,0.4765625,0.60058594,-160.0625,151.09375,-27.90625,0.0,0.0,0.0
1696286870020,-1.1308594,0.32421875,0.43066406,-196.71875,153.1875,11.28125,0.0,0.0,0.0
1696286870054,-0.61816406,0.18164062,0.33789062,-186.0625,151.90625,49.375,0.0,0.0,0.0
1696286870111,-1.0625,-0.12597656,0.18554688,-185.875,141.03125,18.96875,0.0,0.0,0.0
1696286870141,-1.2753906,-0.17871094,0.28808594,-159.6875,124.125,23.90625,0.0,0.0,0.0
1696286870173,-1.0126953,-0.103515625,0.24511719,-85.90625,114.375,4.6875,0.0,0.0,0.0
1696286870266,-0.88183594,-0.21289062,0.14453125,-105.4375,128.90625,1.875,0.0,0.0,0.0
1696286870269,-1.0634766,-0.21289062,0.0234375,-3.375,82.0625,10.0625,0.0,0.0,0.0
1696286870289,-0.8496094,-0.19140625,0.2734375,30.3125,39.21875,-17.90625,0.0,0.0,0.0
1696286870382,-0.6503906,-0.048828125,0.3828125,-26.9375,36.90625,-21.5625,-71.125,-43.3125,-189.9375
1696286870388,-0.7597656,-0.13867188,0.3173828,-11.625,17.25,-18.4375,0.0,0.0,0.0
1696286870416,-0.91503906,-0.04296875,0.38378906,11.03125,25.4375,-14.0625,0.0,0.0,0.0
1696286870471,-1.1367188,-0.107421875,0.22265625,-24.125,16.59375,1.03125,0.0,0.0,0.0
1696286870501,-1.4316406,0.00390625,0.15917969,-71.0625,85.4375,-11.375,0.0,0.0,0.0
1696286870530,-1.5527344,0.07324219,0.14160156,-88.03125,116.3125,9.125,0.0,0.0,0.0
1696286870593,-1.5244141,-0.12695312,0.35058594,19.34375,42.40625,42.09375,0.0,0.0,0.0
1696286870620,-1.1904297,-0.19628906,0.15820312,40.625,-47.0,28.71875,0.0,0.0,0.0
1696286870651,-1.0820312,0.14746094,0.9736328,5.84375,-81.5625,28.375,0.0,0.0,0.0
1696286870715,-1.3320312,-0.2890625,0.28710938,-225.0,-99.6875,41.1875,0.0,0.0,0.0
1696286870739,-1.1757812,0.28027344,-0.7636719,-213.21875,-106.34375,-23.21875,0.0,0.0,0.0
1696286870769,-0.95214844,0.33007812,-0.41992188,76.15625,-112.625,31.90625,0.0,0.0,0.0
1696286870829,-1.3994141,-0.25878906,1.2021484,330.5625,-326.5625,77.1875,0.0,0.0,0.0
1696286870862,-0.9355469,-0.11425781,-0.23730469,137.125,-231.34375,30.5,-67.9375,-38.9375,-174.0625
1696286870889,-0.6435547,0.19921875,0.043945312,129.125,-208.34375,48.5,0.0,0.0,0.0
1696286870949,-0.3125,0.14746094,0.27929688,167.59375,-212.34375,57.53125,0.0,0.0,0.0
1696286870981,-0.091796875,0.40722656,0.17578125,44.65625,-102.96875,5.53125,0.0,0.0,0.0
1696286871010,-0.30371094,0.17773438,0.48242188,16.21875,-58.84375,-4.71875,0.0,0.0,0.0
1696286871086,-0.1640625,0.30371094,0.7626953,-3.4375,-12.21875,-20.875,0.0,0.0,0.0
1696286871099,-0.3779297,0.11621094,0.9082031,11.03125,39.0,-45.3125,0.0,0.0,0.0
1696286871129,-0.3232422,0.5175781,0.8876953,-1.96875,77.375,-45.84375,0.0,0.0,0.0
1696286871228,-1.4365234,0.35546875,2.0,82.8125,55.84375,-72.34375,0.0,0.0,0.0
1696286871231,-0.64160156,0.61328125,0.72265625,-70.8125,84.15625,-94.0625,0.0,0.0,0.0
1696286871248,-0.34375,0.15820312,0.43945312,-110.375,156.0625,-98.84375,0.0,0.0,0.0
1696286871314,-1.3740234,0.10839844,0.26464844,-103.78125,168.6875,-37.125,0.0,0.0,0.0
1696286871341,-1.0947266,-0.057617188,0.08300781,-69.96875,166.4375,-19.0,-66.625,-33.125,-172.125
1696286871372,-0.99902344,0.0078125,0.03125,18.53125,99.40625,13.40625,0.0,0.0,0.0
1696286871468,-1.0556641,0.13085938,0.3017578,36.96875,130.90625,-14.53125,0.0,0.0,0.0
1696286871470,-1.0126953,-0.17578125,-9.765625E-4,44.25,86.71875,-40.96875,0.0,0.0,0.0
1696286871490,-0.7792969,-0.20605469,0.19921875,115.03125,58.21875,-42.9375,0.0,0.0,0.0
1696286871583,-0.6533203,-0.0107421875,0.19824219,23.3125,38.1875,-48.71875,0.0,0.0,0.0
1696286871586,-0.79589844,0.107421875,0.3408203,18.90625,25.1875,-66.375,0.0,0.0,0.0
1696286871609,-1.015625,-0.053710938,0.30664062,36.46875,-9.78125,-22.90625,0.0,0.0,0.0
1696286871702,-1.0087891,-0.17871094,0.2734375,28.71875,1.375,-6.53125,0.0,0.0,0.0
1696286871705,-1.1972656,-0.1484375,0.26367188,28.90625,41.1875,-15.625,0.0,0.0,0.0
1696286871731,-1.2558594,-0.08691406,0.12109375,-100.28125,62.84375,-12.96875,0.0,0.0,0.0
1696286871794,-1.7958984,-0.39746094,0.10644531,-48.78125,92.40625,14.3125,0.0,0.0,0.0
1696286871823,-1.3916016,-0.029296875,0.46679688,46.8125,77.1875,25.875,0.0,0.0,0.0
1696286871850,-1.1650391,0.21972656,0.33203125,-34.4375,-96.28125,40.5,-75.3125,-38.5,-191.75
1696286871912,-0.9121094,0.59765625,0.35351562,38.375,-139.3125,89.875,0.0,0.0,0.0
1696286871940,-1.4199219,-0.23046875,0.75390625,4.3125,-196.5625,76.15625,0.0,0.0,0.0
1696286871971,-1.3369141,-0.08105469,-0.5917969,-235.71875,-68.0625,-4.21875,0.0,0.0,0.0
1696286872156,-0.9980469,0.08691406,-0.3173828,96.71875,-169.8125,30.3125,0.0,0.0,0.0
1696286872166,-1.078125,-0.14257812,1.0097656,236.125,-250.625,58.40625,0.0,0.0,0.0
1696286872172,-1.0029297,0.17480469,-0.29882812,-18.5625,-156.3125,82.75,0.0,0.0,0.0
1696286872174,-0.4482422,0.20507812,0.22753906,106.78125,-197.90625,54.78125,0.0,0.0,0.0
1696286872179,-0.1953125,0.055664062,0.099609375,99.78125,-182.875,62.25,0.0,0.0,0.0
1696286872211,-0.18359375,0.123046875,0.20996094,77.0625,-102.0625,42.78125,0.0,0.0,0.0
1696286872273,-0.20800781,0.17382812,0.6064453,-3.875,-20.03125,12.25,0.0,0.0,0.0
1696286872300,-0.10644531,0.4169922,0.98535156,-9.40625,42.84375,-36.09375,0.0,0.0,0.0
1696286872330,-0.59472656,0.5732422,0.53222656,-22.78125,48.5,-17.96875,-63.625,-19.4375,-156.8125
1696286872393,-1.5283203,0.29589844,0.9980469,-43.03125,62.53125,-69.21875,0.0,0.0,0.0
1696286872419,-0.4482422,0.76660156,0.61328125,-71.78125,86.46875,-89.8125,0.0,0.0,0.0
1696286872455,-0.65527344,0.2685547,0.4404297,-96.6875,140.5625,-58.0625,0.0,0.0,0.0
1696286872514,-1.34375,0.17675781,0.40039062,-160.46875,160.3125,-42.25,0.0,0.0,0.0
1696286872542,-1.3027344,0.080078125,0.22949219,-91.5,126.09375,-25.53125,0.0,0.0,0.0
1696286872571,-0.875,-0.0087890625,0.15429688,-44.03125,123.40625,-27.0625,0.0,0.0,0.0
1696286872669,-0.85839844,0.055664062,0.14257812,-109.875,182.0625,3.40625,0.0,0.0,0.0
1696286872673,-0.8466797,-0.037109375,0.18652344,-155.65625,153.4375,8.84375,0.0,0.0,0.0
1696286872690,-0.8330078,-0.25976562,-0.07910156,-136.625,194.3125,15.5625,0.0,0.0,0.0
1696286872752,-1.1582031,-0.57421875,-0.15625,43.6875,6.46875,13.03125,0.0,0.0,0.0
1696286872781,-0.70996094,-0.07421875,0.3046875,109.65625,4.0,-29.5625,0.0,0.0,0.0
1696286872811,-1.0087891,-0.00390625,0.33789062,33.8125,44.25,-24.5625,0.0,0.0,0.0
1696286872870,-0.9404297,-0.15136719,0.17382812,-69.90625,-38.59375,-18.09375,-85.625,-42.4375,-192.5
1696286872902,-0.9658203,-0.018554688,0.38867188,66.40625,-15.28125,-6.125,0.0,0.0,0.0
1696286872931,-1.1865234,-0.31933594,0.36035156,-108.90625,40.5,-15.8125,0.0,0.0,0.0
1696286872997,-1.3359375,0.0146484375,-0.001953125,-247.03125,81.71875,-36.9375,0.0,0.0,0.0
1696286873021,-1.5439453,0.09375,-0.064453125,-77.78125,6.625,17.3125,0.0,0.0,0.0
1696286873051,-1.4824219,-0.109375,-0.109375,109.78125,-40.65625,49.65625,0.0,0.0,0.0
1696286873169,-0.9589844,-0.021484375,0.2109375,108.5,-34.125,15.625,0.0,0.0,0.0
1696286873171,-1.0771484,0.22070312,0.4921875,95.875,-88.9375,34.15625,0.0,0.0,0.0
1696286873172,-1.4228516,0.16503906,0.7128906,-2.9375,-154.875,47.96875,0.0,0.0,0.0
1696286873230,-1.1875,0.40820312,-0.3857422,-216.25,-89.6875,13.96875,0.0,0.0,0.0
1696286873261,-1.0703125,0.19433594,-0.46875,-56.71875,-141.3125,38.4375,0.0,0.0,0.0
1696286873290,-1.1923828,-0.4580078,0.5097656,259.375,-270.53125,85.75,0.0,0.0,0.0
1696286873352,-0.89453125,0.3515625,-0.23242188,102.71875,-186.28125,144.03125,-76.375,-30.25,-161.75
1696286873382,-0.69921875,0.20019531,0.31835938,146.03125,-217.4375,117.90625,0.0,0.0,0.0
1696286873410,-0.36914062,-0.10839844,0.041015625,136.71875,-185.1875,82.625,0.0,0.0,0.0
1696286873440,0.016601562,0.44433594,0.31152344,100.09375,-121.59375,62.90625,0.0,0.0,0.0
1696286873501,-0.23730469,0.3828125,0.515625,27.375,-44.5625,25.0,0.0,0.0,0.0
1696286873529,0.06347656,0.55566406,0.6816406,-50.625,31.0625,-3.375,0.0,0.0,0.0
1696286873559,-0.22851562,0.55566406,0.79296875,5.53125,74.5,-34.625,0.0,0.0,0.0
1696286873622,-0.953125,-0.03515625,1.5419922,-43.21875,54.4375,-74.53125,0.0,0.0,0.0
1696286873652,-1.0996094,1.0166016,0.46484375,-37.78125,75.53125,-64.28125,0.0,0.0,0.0
1696286873679,-0.5332031,0.34179688,0.39648438,-118.59375,95.3125,-67.09375,0.0,0.0,0.0
1696286873740,-0.6699219,0.37402344,0.359375,-160.53125,117.34375,-21.5,0.0,0.0,0.0
1696286873770,-1.0849609,0.26171875,0.24804688,-218.53125,129.5625,-15.53125,0.0,0.0,0.0
1696286873801,-1.0556641,0.20410156,0.31152344,-154.5,121.25,-14.3125,0.0,0.0,0.0
1696286873953,-0.97265625,-0.016601562,0.3720703,-139.34375,123.8125,-13.4375,-72.875,-28.0,-153.375
1696286873955,-0.86816406,0.024414062,0.31152344,-146.25,107.34375,3.21875,0.0,0.0,0.0
1696286873956,-0.8857422,-0.02734375,0.20019531,-163.96875,131.21875,29.40625,0.0,0.0,0.0
1696286873979,-1.0029297,-0.17382812,0.12402344,-143.03125,139.4375,-5.9375,0.0,0.0,0.0
1696286874011,-0.95996094,-0.25390625,0.034179688,-106.46875,68.53125,-10.75,0.0,0.0,0.0
1696286874041,-0.91308594,-0.107421875,-0.01953125,-84.125,40.625,-21.875,0.0,0.0,0.0
1696286874098,-0.83203125,0.107421875,0.3515625,-29.0625,57.125,-21.5625,0.0,0.0,0.0
1696286874130,-1.0371094,-0.036132812,0.203125,-132.09375,27.21875,9.375,0.0,0.0,0.0
1696286874161,-1.0039062,-0.1171875,-0.0087890625,-138.625,13.34375,20.125,0.0,0.0,0.0
1696286874221,-0.98046875,-0.33984375,-0.11230469,-61.53125,49.90625,26.90625,0.0,0.0,0.0
1696286874249,-0.96484375,-0.35546875,0.359375,-3.125,94.03125,16.53125,0.0,0.0,0.0
1696286874282,-1.0078125,-0.15917969,0.125,-56.65625,17.625,6.15625,0.0,0.0,0.0
1696286874355,-0.8613281,0.0146484375,0.1484375,-64.15625,-4.34375,6.03125,-91.0625,-42.125,-176.3125
1696286874369,-1.2148438,-0.024414062,0.06542969,-79.375,-19.71875,5.21875,0.0,0.0,0.0
1696286874405,-1.5048828,-0.025390625,0.06542969,-148.4375,-24.1875,-14.90625,0.0,0.0,0.0
1696286874462,-1.1699219,0.35546875,0.16796875,-127.9375,-122.21875,-3.6875,0.0,0.0,0.0
1696286874492,-1.1142578,0.6328125,0.12988281,-206.5,-157.5625,21.90625,0.0,0.0,0.0
1696286874521,-1.1748047,0.40039062,-0.54589844,80.5,-180.25,70.53125,0.0,0.0,0.0
1696286874584,-1.1162109,-0.2109375,-0.044921875,81.90625,-156.3125,115.09375,0.0,0.0,0.0
1696286874611,-0.8173828,0.049804688,0.025390625,8.78125,-91.03125,77.75,0.0,0.0,0.0
1696286874640,-0.7441406,-0.16503906,0.15136719,-7.28125,-44.9375,64.375,0.0,0.0,0.0
1696286874702,-0.6347656,0.26171875,0.2548828,-8.0625,-24.625,43.375,0.0,0.0,0.0
1696286874729,-0.5214844,0.5263672,0.29492188,-47.75,33.3125,21.71875,0.0,0.0,0.0
1696286874763,-0.67089844,0.37402344,0.35839844,-118.53125,59.90625,19.875,0.0,0.0,0.0
1696286874821,-0.74121094,0.16015625,0.38476562,-177.5625,67.375,11.71875,0.0,0.0,0.0
1696286874851,-0.95214844,0.0078125,0.32617188,-178.3125,69.8125,2.0,-76.625,-34.1875,-153.5
1696286874879,-1.1005859,-0.4873047,0.97265625,-166.03125,79.625,-31.21875,0.0,0.0,0.0
1696286874941,-0.97265625,-0.099609375,0.5644531,-126.71875,41.84375,-30.53125,0.0,0.0,0.0
1696286874971,-1.6757812,0.3330078,0.24023438,-106.53125,48.75,-29.375,0.0,0.0,0.0
1696286875001,-0.7128906,0.8183594,0.016601562,-149.375,-29.4375,-12.21875,0.0,0.0,0.0
1696286875059,-0.6591797,0.3720703,0.07128906,-21.625,55.40625,56.75,0.0,0.0,0.0
1696286875090,-1.4941406,-0.11425781,-0.049804688,-214.125,67.4375,53.375,0.0,0.0,0.0
1696286875119,-1.3271484,-0.82714844,-0.23339844,-280.28125,87.21875,-4.21875,0.0,0.0,0.0
1696286875181,-0.96777344,-0.4326172,0.10546875,-25.53125,63.53125,12.0625,0.0,0.0,0.0
1696286875209,-0.9199219,-0.0146484375,0.12792969,80.125,40.21875,-6.25,0.0,0.0,0.0
1696286875240,-0.9277344,-0.083984375,0.09375,-30.40625,28.71875,-6.71875,0.0,0.0,0.0
1696286875300,-0.9121094,-0.21289062,0.14453125,-28.03125,12.875,-13.0625,0.0,0.0,0.0
1696286875333,-0.7714844,-0.08984375,0.22851562,-64.46875,43.25,-22.28125,-84.0,-59.6875,-182.0
1696286875362,-1.0019531,-0.3701172,0.26171875,-21.375,47.65625,2.78125,0.0,0.0,0.0
1696286875423,-1.0126953,-0.21777344,0.35058594,-5.25,52.0,8.71875,0.0,0.0,0.0
1696286875452,-0.9433594,0.051757812,0.17773438,-89.0,-15.34375,-1.0625,0.0,0.0,0.0
1696286875482,-1.0097656,0.08105469,0.020507812,-64.34375,-36.09375,19.75,0.0,0.0,0.0
1696286875542,-1.1806641,-0.1328125,-0.21582031,-59.40625,-16.75,20.3125,0.0,0.0,0.0
1696286875570,-1.4716797,-0.18457031,-0.34375,-109.6875,34.65625,11.28125,0.0,0.0,0.0
1696286875601,-1.6796875,-0.3046875,-0.17578125,4.5625,31.34375,3.59375,0.0,0.0,0.0
1696286875661,-1.6923828,0.2421875,0.49121094,152.5,118.03125,10.0625,0.0,0.0,0.0
1696286875689,-1.0146484,0.123046875,0.24902344,-44.4375,-146.5625,79.5,0.0,0.0,0.0
1696286875720,-1.1875,0.3798828,0.3330078,-65.1875,-161.21875,88.25,0.0,0.0,0.0
1696286875782,-1.0839844,0.15136719,-0.36621094,-205.34375,-142.15625,59.0625,0.0,0.0,0.0
1696286875810,-1.2539062,0.15722656,0.14746094,-207.65625,-168.78125,0.28125,0.0,0.0,0.0
1696286875839,-1.1386719,0.18457031,0.06933594,-104.15625,-215.34375,-5.6875,-82.625,-49.3125,-175.6875
1696286875902,-1.0986328,-0.19238281,0.33984375,131.9375,-180.625,34.78125,0.0,0.0,0.0
1696286875933,-0.7753906,0.15136719,0.20898438,103.4375,-164.5,51.4375,0.0,0.0,0.0
1696286875964,-0.46777344,0.17480469,0.09863281,188.59375,-210.53125,74.5625,0.0,0.0,0.0
1696286876021,-0.25683594,0.109375,0.16894531,78.40625,-142.90625,50.28125,0.0,0.0,0.0
1696286876055,-0.21191406,0.18652344,0.125,95.125,-112.3125,28.71875,0.0,0.0,0.0
1696286876082,-0.2734375,0.20800781,0.55078125,13.46875,-58.1875,-3.3125,0.0,0.0,0.0
1696286876143,-0.33496094,0.5341797,0.69140625,-47.375,-7.40625,-28.6875,0.0,0.0,0.0
1696286876169,-0.3466797,0.16210938,1.0722656,-13.25,14.8125,-54.875,0.0,0.0,0.0
1696286876200,-0.17871094,0.44140625,0.69628906,-53.65625,82.4375,-52.3125,0.0,0.0,0.0
1696286876260,-1.125,0.64941406,1.3496094,14.375,80.90625,-19.5,0.0,0.0,0.0
1696286876289,-1.2060547,0.7529297,0.16308594,-89.375,105.40625,-44.5,0.0,0.0,0.0
1696286876321,-0.32128906,0.29296875,0.5966797,-68.3125,126.09375,-64.53125,-67.375,-36.6875,-159.375
1696286876380,-1.0390625,0.05078125,0.3486328,-139.90625,150.125,-50.96875,0.0,0.0,0.0
1696286876408,-1.3046875,0.060546875,0.4326172,-144.65625,129.9375,-35.34375,0.0,0.0,0.0
1696286876441,-0.7285156,0.3173828,0.15429688,-86.75,114.375,-9.0,0.0,0.0,0.0
1696286876500,-0.9970703,0.057617188,0.14355469,-159.6875,117.96875,28.84375,0.0,0.0,0.0
1696286876531,-0.94921875,-0.013671875,0.040039062,-29.75,118.8125,27.6875,0.0,0.0,0.0
1696286876563,-0.8613281,-0.23339844,0.12890625,-1.78125,121.8125,18.40625,0.0,0.0,0.0
1696286876620,-1.0458984,-0.6123047,-0.055664062,51.125,69.9375,-9.59375,0.0,0.0,0.0
1696286876650,-0.78222656,-0.041015625,0.38183594,68.53125,48.5,-41.53125,0.0,0.0,0.0
1696286876681,-0.9082031,-0.14453125,0.16796875,-39.6875,36.1875,-32.375,0.0,0.0,0.0
1696286876743,-0.8925781,0.10644531,0.22363281,7.0,31.90625,-30.71875,0.0,0.0,0.0
1696286876771,-0.8027344,-0.0048828125,0.31054688,22.25,9.6875,-8.5,0.0,0.0,0.0
1696286876800,-1.1669922,-0.33984375,0.35058594,-29.375,40.28125,13.28125,0.0,0.0,0.0
1696286876922,-1.3212891,0.01171875,0.11230469,-61.84375,37.9375,2.0,-80.5625,-49.9375,-192.1875
1696286876924,-1.4111328,0.09472656,0.0146484375,-85.90625,78.90625,7.5,0.0,0.0,0.0
1696286876927,-1.5263672,-0.16601562,-0.060546875,-17.96875,28.25,35.375,0.0,0.0,0.0
1696286876978,-1.4892578,-0.21875,-0.083984375,72.4375,-20.34375,32.53125,0.0,0.0,0.0
1696286877013,-1.0146484,0.25390625,0.77441406,125.0,-84.78125,46.25,0.0,0.0,0.0
1696286877040,-1.2509766,0.15625,0.6640625,-90.65625,-118.65625,43.0625,0.0,0.0,0.0
1696286877100,-1.3310547,0.0546875,-0.033203125,-298.90625,-141.3125,7.125,0.0,0.0,0.0
1696286877129,-1.3359375,0.19628906,-0.36523438,-69.46875,-129.65625,-10.21875,0.0,0.0,0.0
1696286877160,-0.9980469,-0.078125,-0.028320312,155.5,-250.125,52.0625,0.0,0.0,0.0
1696286877309,-1.0986328,-0.28515625,0.44628906,229.21875,-143.21875,42.90625,0.0,0.0,0.0
1696286877311,-0.7480469,0.40625,0.009765625,139.8125,-203.625,73.78125,0.0,0.0,0.0
1696286877312,-0.4580078,0.037109375,0.12792969,99.46875,-219.6875,48.5,0.0,0.0,0.0
1696286877339,-0.08496094,0.234375,0.14453125,54.625,-133.625,10.25,-68.125,-28.9375,-165.625
1696286877369,-0.19140625,0.23632812,0.33398438,61.5625,-80.21875,14.28125,0.0,0.0,0.0
1696286877398,-0.09667969,0.3515625,0.6738281,16.15625,-34.5625,-15.8125,0.0,0.0,0.0
1696286877463,-0.17480469,0.36621094,0.9189453,3.71875,29.09375,-53.71875,0.0,0.0,0.0
1696286877492,-0.7451172,0.7089844,0.74121094,-13.625,24.59375,-26.125,0.0,0.0,0.0
1696286877523,-1.3183594,0.26953125,0.7763672,-69.53125,79.9375,-74.0,0.0,0.0,0.0
1696286877581,-0.5751953,0.51660156,0.46484375,-95.90625,111.25,-86.6875,0.0,0.0,0.0
1696286877611,-0.8613281,0.17773438,0.390625,-111.40625,156.25,-57.8125,0.0,0.0,0.0
1696286877640,-1.2158203,0.10839844,0.27734375,-117.15625,140.84375,-24.25,0.0,0.0,0.0
1696286877700,-1.1845703,-0.032226562,0.2783203,-86.1875,136.28125,-27.0,0.0,0.0,0.0
1696286877731,-1.0224609,-0.10253906,0.21777344,-118.65625,129.0,-5.15625,0.0,0.0,0.0
1696286877760,-0.921875,-0.078125,0.18164062,-31.75,136.875,15.84375,0.0,0.0,0.0
1696286877880,-1.1210938,-0.29785156,0.04296875,47.28125,137.3125,2.0625,0.0,0.0,0.0
1696286877882,-0.8076172,-0.34472656,0.19921875,177.0625,92.28125,-20.71875,-81.4375,-40.75,-195.375
1696286877883,-0.70410156,-0.19140625,0.15917969,54.5,87.5,-65.09375,0.0,0.0,0.0
1696286877943,-0.75390625,0.17578125,0.140625,-54.8125,66.40625,-61.0625,0.0,0.0,0.0
1696286877970,-1.0292969,0.1015625,0.123046875,-12.09375,47.53125,-34.0625,0.0,0.0,0.0
1696286878002,-0.9082031,-0.06347656,0.1953125,92.5625,15.5,-12.96875,0.0,0.0,0.0
1696286878061,-1.3378906,-0.35058594,0.390625,66.28125,32.34375,5.78125,0.0,0.0,0.0
1696286878091,-1.2675781,-0.08496094,0.20703125,-65.5625,24.09375,-1.0625,0.0,0.0,0.0
1696286878122,-1.3359375,-0.13085938,-0.091796875,-170.78125,23.53125,11.28125,0.0,0.0,0.0
1696286878208,-1.4638672,-0.16894531,-0.16308594,-40.65625,-17.40625,29.40625,0.0,0.0,0.0
1696286878208,-1.4707031,-0.0107421875,-0.22851562,25.9375,-35.21875,40.625,0.0,0.0,0.0
1696286878238,-1.0478516,0.0546875,0.032226562,13.0,-59.28125,32.09375,0.0,0.0,0.0
1696286878303,-1.2158203,0.40527344,0.9453125,278.625,-189.21875,78.96875,0.0,0.0,0.0
1696286878329,-1.3818359,0.078125,0.24023438,-202.78125,-148.6875,81.59375,-81.3125,-44.5,-197.0
1696286878361,-1.3886719,-0.12011719,-0.5,-31.875,-143.09375,36.65625,0.0,0.0,0.0
1696286878426,-1.1669922,-0.11230469,0.41503906,185.28125,-182.75,88.375,0.0,0.0,0.0
1696286878447,-1.1591797,0.0078125,0.3671875,145.375,-154.125,95.75,0.0,0.0,0.0
1696286878478,-0.57128906,0.39257812,0.18261719,84.6875,-181.09375,29.28125,0.0,0.0,0.0
1696286878538,-0.3330078,0.24609375,0.20019531,105.875,-170.78125,46.1875,0.0,0.0,0.0
1696286878569,-0.2861328,0.15917969,0.22753906,72.4375,-131.78125,16.09375,0.0,0.0,0.0
1696286878599,-0.12988281,0.1875,0.2529297,54.25,-85.15625,14.21875,0.0,0.0,0.0
1696286878725,-0.17773438,0.39257812,0.453125,4.0625,-34.6875,-10.40625,0.0,0.0,0.0
1696286878727,-0.15136719,0.4736328,0.7558594,-59.34375,10.78125,-38.84375,0.0,0.0,0.0
1696286878729,-0.36328125,0.2421875,0.91015625,-16.5625,52.0625,-75.34375,0.0,0.0,0.0
1696286878779,-0.81152344,0.4267578,0.5390625,-18.09375,88.90625,-56.78125,0.0,0.0,0.0
1696286878810,-1.8779297,0.20507812,0.66796875,-14.78125,91.0625,-79.3125,0.0,0.0,0.0
1696286878839,-0.19433594,0.57714844,0.39648438,-22.0,105.6875,-68.875,-76.1875,-41.5,-163.6875
1696286878904,-0.5966797,0.24804688,0.37402344,-106.78125,156.53125,-56.03125,0.0,0.0,0.0
1696286878928,-1.4501953,0.030273438,0.35253906,-128.375,131.03125,-34.75,0.0,0.0,0.0
1696286878965,-1.1542969,-0.016601562,0.24707031,-105.46875,146.28125,-2.9375,0.0,0.0,0.0
1696286879021,-0.73339844,-0.028320312,0.25195312,-60.875,141.21875,-14.46875,0.0,0.0,0.0
1696286879053,-1.1054688,-0.09667969,0.053710938,20.75,133.84375,-3.125,0.0,0.0,0.0
1696286879080,-0.9921875,-0.22753906,0.095703125,56.0625,156.0625,-24.78125,0.0,0.0,0.0
1696286879322,-0.7714844,-0.3017578,0.036132812,130.28125,55.71875,-36.46875,0.0,0.0,0.0
1696286879323,-0.6826172,-0.140625,0.15332031,67.0,61.4375,-71.0,0.0,0.0,0.0
1696286879353,-0.8701172,-0.001953125,0.1796875,-78.03125,71.15625,-83.4375,0.0,0.0,0.0
1696286879354,-0.95214844,0.1171875,0.09082031,-65.3125,14.4375,-53.25,0.0,0.0,0.0
1696286879356,-0.95996094,0.16699219,0.10839844,-100.90625,41.0,-8.9375,0.0,0.0,0.0
1696286879356,-1.1552734,-0.4765625,0.16210938,54.0625,6.03125,29.15625,-79.375,-60.4375,-200.625
1696286879378,-1.1035156,-0.3251953,0.17578125,-38.34375,35.6875,-12.90625,0.0,0.0,0.0
1696286879409,-1.2851562,0.115234375,0.059570312,-88.9375,68.28125,-10.4375,0.0,0.0,0.0
1696286879438,-1.5214844,-0.064453125,-0.009765625,-79.375,14.4375,17.75,0.0,0.0,0.0
1696286879502,-1.4453125,-0.08691406,-0.19238281,-44.09375,-50.0625,49.375,0.0,0.0,0.0
1696286879531,-1.1210938,0.11816406,-0.21777344,-97.625,-54.8125,17.4375,0.0,0.0,0.0
1696286879560,-1.1142578,0.23828125,-0.13378906,-35.15625,-89.6875,36.25,0.0,0.0,0.0
1696286879653,-1.1953125,0.07128906,-0.2607422,70.96875,-54.65625,63.53125,0.0,0.0,0.0
1696286879655,-1.1191406,-0.087890625,0.5078125,201.34375,-148.28125,71.6875,0.0,0.0,0.0
1696286879680,-0.9394531,0.27734375,-0.18261719,-99.125,-98.71875,49.4375,0.0,0.0,0.0
1696286879743,-0.99121094,-0.061523438,-0.12695312,-6.5,-77.65625,55.53125,0.0,0.0,0.0
1696286879770,-0.93847656,0.09863281,0.31347656,54.1875,-93.9375,53.75,0.0,0.0,0.0
1696286879802,-0.67089844,0.30273438,-0.0126953125,-50.25,-78.875,47.71875,0.0,0.0,0.0
1696286879866,-0.5683594,0.119140625,0.087890625,-64.15625,-56.46875,41.84375,-85.0625,-46.9375,-178.5625
1696286879890,-0.49804688,0.14355469,0.08691406,-28.21875,-36.5625,44.71875,0.0,0.0,0.0
1696286879920,-0.6298828,0.08984375,0.12109375,-35.96875,-18.6875,35.4375,0.0,0.0,0.0
1696286880018,-0.6855469,0.12597656,0.119140625,-38.21875,9.1875,10.1875,0.0,0.0,0.0
1696286880040,-0.7607422,0.123046875,0.21777344,-54.21875,38.3125,-10.34375,0.0,0.0,0.0
1696286880041,-0.8388672,0.17578125,0.3095703,-88.53125,59.5625,-25.59375,0.0,0.0,0.0
1696286880101,-0.87890625,0.06640625,0.42871094,-50.5625,71.03125,-26.0625,0.0,0.0,0.0
1696286880166,-0.9121094,0.19628906,0.57128906,-75.5625,79.09375,-40.1875,0.0,0.0,0.0
1696286880193,-1.0175781,0.11425781,0.63378906,-45.96875,71.53125,-43.03125,0.0,0.0,0.0
1696286880220,-0.9873047,-0.20410156,0.6113281,-26.8125,73.71875,-31.375,0.0,0.0,0.0
1696286880281,-1.0341797,-0.28320312,0.30273438,3.34375,44.40625,-41.15625,0.0,0.0,0.0
1696286880310,-1.6142578,0.20117188,0.12109375,23.375,33.625,-40.65625,0.0,0.0,0.0
1696286880341,-1.0869141,0.5332031,0.13769531,-74.59375,-1.40625,-27.96875,-85.5,-56.5,-194.0
1696286880371,-0.44628906,0.47851562,0.043945312,-66.0,-36.03125,9.9375,0.0,0.0,0.0
1696286880406,-0.6328125,-0.036132812,-0.28125,-134.0625,-5.875,19.03125,0.0,0.0,0.0
1696286880490,-1.3730469,-0.12890625,-0.4736328,-95.46875,25.9375,1.375,0.0,0.0,0.0
1696286880525,-1.1914062,-0.28027344,-0.11816406,-22.53125,27.4375,-6.78125,0.0,0.0,0.0
1696286880548,-0.9160156,-0.1796875,0.030273438,2.25,24.34375,-17.90625,0.0,0.0,0.0
1696286880578,-0.9951172,0.08300781,0.28222656,2.78125,66.34375,-13.5625,0.0,0.0,0.0
1696286880607,-0.97558594,-0.095703125,-0.11621094,-140.53125,-21.625,-10.21875,0.0,0.0,0.0
1696286880637,-0.9814453,-0.08496094,-0.16210938,-90.34375,3.59375,-6.4375,0.0,0.0,0.0
1696286880697,-0.9746094,-0.15332031,0.024414062,-47.25,18.34375,4.375,0.0,0.0,0.0
1696286880727,-0.99902344,-0.1953125,0.13769531,-56.90625,30.375,7.8125,0.0,0.0,0.0
1696286880757,-0.99609375,-0.11425781,0.109375,-66.46875,20.625,5.34375,0.0,0.0,0.0
