# Sensor type: Thingy
# Activity type: Sitting
# Activity subtype: Normal
# Subject id: s2094833
# Notes: 
timestamp,accel_x,accel_y,accel_z,gyro_x,gyro_y,gyro_z,mag_x,mag_y,mag_z
1696287373182,0.22558594,-0.032226562,0.953125,-0.21875,-0.15625,0.1875,0.0,0.0,0.0
1696287373210,0.22460938,-0.032226562,0.95996094,-0.25,-0.15625,0.0,0.0,0.0,0.0
1696287373271,0.22460938,-0.032226562,0.97265625,0.09375,-0.15625,0.0625,0.0,0.0,0.0
1696287373301,0.2265625,-0.040039062,0.9746094,0.15625,-0.09375,0.4375,0.0,0.0,0.0
1696287373330,0.22070312,-0.036132812,0.9746094,-0.21875,0.03125,0.25,-6.0,-36.4375,-162.5
1696287373391,0.21777344,-0.043945312,0.9716797,0.09375,-0.21875,0.25,0.0,0.0,0.0
1696287373423,0.23144531,-0.043945312,0.9746094,-0.09375,-0.09375,0.125,0.0,0.0,0.0
1696287373451,0.22070312,-0.037109375,0.984375,0.03125,-0.40625,0.3125,0.0,0.0,0.0
1696287373513,0.21972656,-0.033203125,0.9628906,-0.21875,-0.09375,-0.0625,0.0,0.0,0.0
1696287373541,0.22558594,-0.046875,0.9658203,-0.09375,-0.09375,0.1875,0.0,0.0,0.0
1696287373572,0.22460938,-0.032226562,0.9707031,0.09375,0.375,0.0625,0.0,0.0,0.0
1696287373634,0.23046875,-0.03125,0.9560547,-0.03125,-0.53125,0.125,0.0,0.0,0.0
1696287373661,0.21679688,-0.02734375,0.9814453,-0.4375,0.125,-0.0625,0.0,0.0,0.0
1696287373691,0.2109375,-0.040039062,0.97753906,-0.03125,-0.28125,0.25,0.0,0.0,0.0
1696287373754,0.22460938,-0.040039062,0.97753906,-0.375,-0.21875,0.3125,0.0,0.0,0.0
1696287373783,0.22949219,-0.04296875,0.9785156,-0.15625,-0.15625,0.1875,0.0,0.0,0.0
1696287373810,0.22167969,-0.038085938,0.97558594,0.15625,0.1875,-0.125,-5.6875,-35.9375,-162.8125
1696287373870,0.22558594,-0.029296875,0.96777344,0.21875,0.03125,-0.1875,0.0,0.0,0.0
1696287373903,0.22460938,-0.030273438,0.97558594,-0.21875,-0.21875,0.0,0.0,0.0,0.0
1696287373931,0.21777344,-0.048828125,0.9707031,0.21875,0.03125,0.0625,0.0,0.0,0.0
1696287374025,0.23046875,-0.045898438,0.9580078,-0.09375,-0.21875,0.0625,0.0,0.0,0.0
1696287374057,0.22558594,-0.034179688,0.9794922,-0.03125,-0.15625,0.0,0.0,0.0,0.0
1696287374059,0.21875,-0.034179688,0.96484375,-0.21875,-0.21875,0.1875,0.0,0.0,0.0
1696287374115,0.23339844,-0.02734375,0.9707031,-0.03125,-0.09375,-0.125,0.0,0.0,0.0
1696287374142,0.2265625,-0.038085938,0.97558594,-0.25,0.03125,-0.125,0.0,0.0,0.0
1696287374173,0.22363281,-0.030273438,0.97265625,0.40625,0.375,-0.125,0.0,0.0,0.0
1696287374232,0.22753906,-0.040039062,0.97753906,-0.03125,-0.09375,-0.1875,0.0,0.0,0.0
1696287374260,0.22753906,-0.03515625,0.9716797,-0.09375,-0.09375,-0.25,0.0,0.0,0.0
1696287374291,0.23046875,-0.041992188,0.9824219,-0.15625,-0.53125,0.0,0.0,0.0,0.0
1696287374351,0.2265625,-0.028320312,0.97753906,0.03125,-0.28125,0.125,-5.5625,-34.75,-162.9375
1696287374382,0.23046875,-0.03125,0.9716797,-0.09375,-0.78125,-0.1875,0.0,0.0,0.0
1696287374411,0.22265625,-0.037109375,0.9628906,-0.09375,0.03125,-0.375,0.0,0.0,0.0
1696287374472,0.23046875,-0.044921875,0.96777344,0.09375,0.3125,-0.0625,0.0,0.0,0.0
1696287374500,0.22265625,-0.029296875,0.9707031,0.09375,0.125,-0.0625,0.0,0.0,0.0
1696287374530,0.23046875,-0.038085938,0.9707031,0.09375,-0.03125,-0.0625,0.0,0.0,0.0
1696287374590,0.22949219,-0.040039062,0.9716797,-0.03125,-0.09375,0.0,0.0,0.0,0.0
1696287374621,0.22167969,-0.038085938,0.9667969,0.09375,0.03125,0.0,0.0,0.0,0.0
1696287374652,0.23242188,-0.037109375,0.98339844,-0.21875,0.03125,-0.1875,0.0,0.0,0.0
1696287374715,0.22363281,-0.046875,0.9667969,0.09375,0.0625,-0.125,0.0,0.0,0.0
1696287374742,0.22460938,-0.037109375,0.9785156,0.15625,0.25,0.0,0.0,0.0,0.0
1696287374771,0.23144531,-0.03515625,0.97265625,0.09375,0.0625,-0.1875,0.0,0.0,0.0
1696287374833,0.22460938,-0.044921875,0.97558594,-0.09375,-0.09375,-0.0625,-5.6875,-34.1875,-162.1875
1696287374860,0.21484375,-0.03515625,0.9746094,0.03125,0.0625,-0.1875,0.0,0.0,0.0
1696287374892,0.22460938,-0.034179688,0.9785156,-0.3125,0.125,-0.125,0.0,0.0,0.0
1696287374951,0.22167969,-0.032226562,0.96777344,-0.3125,-0.09375,0.1875,0.0,0.0,0.0
1696287374980,0.22753906,-0.040039062,0.9736328,-0.03125,-0.03125,0.25,0.0,0.0,0.0
1696287375013,0.22167969,-0.03515625,0.97265625,-0.09375,-0.28125,0.125,0.0,0.0,0.0
1696287375074,0.22558594,-0.04296875,0.9746094,0.09375,0.0625,0.0,0.0,0.0,0.0
1696287375108,0.2265625,-0.037109375,0.9765625,0.03125,-0.15625,-0.125,0.0,0.0,0.0
1696287375131,0.21582031,-0.036132812,0.9794922,0.21875,0.03125,-0.125,0.0,0.0,0.0
1696287375190,0.23339844,-0.029296875,0.9746094,-0.25,-0.40625,-0.125,0.0,0.0,0.0
1696287375222,0.21875,-0.028320312,0.97558594,-0.03125,-0.09375,0.1875,0.0,0.0,0.0
1696287375251,0.22070312,-0.03515625,0.9628906,-0.03125,-0.15625,0.125,0.0,0.0,0.0
1696287375311,0.23925781,-0.043945312,0.9667969,-0.09375,-0.21875,0.25,0.0,0.0,0.0
1696287375342,0.22265625,-0.036132812,0.9667969,0.34375,0.375,0.25,-4.625,-35.6875,-162.5
1696287375374,0.22460938,-0.0390625,0.9658203,-0.5,-0.21875,-0.3125,0.0,0.0,0.0
1696287375434,0.2265625,-0.036132812,0.97753906,-0.09375,-0.09375,-0.25,0.0,0.0,0.0
1696287375464,0.21972656,-0.028320312,0.9628906,-0.3125,-0.21875,0.0,0.0,0.0,0.0
1696287375493,0.23046875,-0.038085938,0.96777344,0.15625,-0.34375,0.5,0.0,0.0,0.0
1696287375554,0.22558594,-0.038085938,0.96972656,-0.09375,-0.15625,0.1875,0.0,0.0,0.0
1696287375583,0.2265625,-0.043945312,0.9765625,-0.09375,-0.09375,0.125,0.0,0.0,0.0
1696287375613,0.21972656,-0.0390625,0.9746094,-0.15625,0.03125,-0.1875,0.0,0.0,0.0
1696287375765,0.22753906,-0.032226562,0.9667969,-0.09375,-0.09375,-0.25,0.0,0.0,0.0
1696287375767,0.23242188,-0.041015625,0.9794922,-0.15625,-0.09375,-0.1875,0.0,0.0,0.0
1696287375769,0.21582031,-0.04296875,0.95410156,0.03125,0.125,0.0625,0.0,0.0,0.0
1696287375790,0.22363281,-0.041015625,0.9707031,0.03125,0.1875,0.1875,0.0,0.0,0.0
1696287375822,0.23242188,-0.034179688,0.9736328,-0.09375,0.0625,0.0625,-6.125,-35.5,-161.3125
1696287375851,0.21972656,-0.041015625,0.9628906,-0.21875,-0.15625,0.0,0.0,0.0,0.0
1696287375913,0.22753906,-0.047851562,0.9550781,0.21875,0.125,0.125,0.0,0.0,0.0
1696287375946,0.22070312,-0.041015625,0.97753906,-0.03125,-0.03125,0.25,0.0,0.0,0.0
1696287375974,0.22851562,-0.036132812,0.9707031,-0.03125,-0.09375,0.0,0.0,0.0,0.0
1696287376063,0.22460938,-0.034179688,0.9707031,-0.15625,0.125,-0.125,0.0,0.0,0.0
1696287376067,0.22167969,-0.037109375,0.9716797,-0.25,0.03125,0.0625,0.0,0.0,0.0
1696287376090,0.22265625,-0.046875,0.96191406,0.03125,-0.34375,0.375,0.0,0.0,0.0
1696287376184,0.2265625,-0.036132812,0.96972656,-0.15625,0.3125,0.1875,0.0,0.0,0.0
1696287376186,0.21679688,-0.045898438,0.9794922,-0.21875,-0.15625,0.0,0.0,0.0,0.0
1696287376211,0.22070312,-0.041992188,0.9707031,-0.03125,0.03125,0.0,0.0,0.0,0.0
1696287376304,0.234375,-0.034179688,0.96777344,-0.03125,-0.1875,0.0625,0.0,0.0,0.0
1696287376308,0.23046875,-0.034179688,0.9814453,0.09375,0.1875,-0.0625,0.0,0.0,0.0
1696287376331,0.21679688,-0.037109375,0.96875,-0.15625,-0.0625,-0.125,-3.4375,-35.1875,-163.875
1696287376394,0.22949219,-0.04296875,0.96777344,0.15625,0.1875,0.0,0.0,0.0,0.0
1696287376419,0.22460938,-0.0390625,0.95214844,-0.15625,-0.34375,-0.125,0.0,0.0,0.0
1696287376450,0.2265625,-0.032226562,0.9794922,0.03125,-0.0625,0.0,0.0,0.0,0.0
1696287376512,0.23046875,-0.037109375,0.9501953,-0.15625,0.0,0.125,0.0,0.0,0.0
1696287376543,0.22558594,-0.041992188,0.9638672,0.3125,-0.125,0.0,0.0,0.0,0.0
1696287376572,0.22558594,-0.0390625,0.9628906,0.03125,0.0625,-0.125,0.0,0.0,0.0
1696287376633,0.21972656,-0.038085938,0.96972656,-0.09375,0.1875,-0.1875,0.0,0.0,0.0
1696287376662,0.22460938,-0.032226562,0.95703125,0.15625,0.0625,-0.125,0.0,0.0,0.0
1696287376691,0.22363281,-0.0390625,0.95996094,0.03125,0.0,0.0625,0.0,0.0,0.0
1696287376751,0.22167969,-0.033203125,0.98535156,0.09375,0.25,-0.0625,0.0,0.0,0.0
1696287376782,0.22363281,-0.041992188,0.96777344,0.03125,0.0,-0.1875,0.0,0.0,0.0
1696287376811,0.22460938,-0.026367188,0.96972656,0.03125,-0.125,-0.125,-5.125,-35.8125,-162.375
1696287376875,0.22070312,-0.045898438,0.96777344,0.3125,0.375,0.0,0.0,0.0,0.0
1696287376905,0.22460938,-0.0390625,0.9667969,0.03125,-0.125,-0.0625,0.0,0.0,0.0
1696287376935,0.22753906,-0.03125,0.96484375,0.15625,-0.0625,0.0,0.0,0.0,0.0
1696287376992,0.23242188,-0.038085938,0.9794922,0.09375,0.0,0.0,0.0,0.0,0.0
1696287377023,0.22460938,-0.041015625,0.9707031,-0.09375,-0.28125,0.25,0.0,0.0,0.0
1696287377053,0.21484375,-0.037109375,0.9746094,0.21875,-0.28125,0.375,0.0,0.0,0.0
1696287377140,0.2265625,-0.034179688,0.9785156,0.09375,-0.21875,0.1875,0.0,0.0,0.0
1696287377143,0.22851562,-0.0390625,0.9794922,0.21875,-0.53125,0.125,0.0,0.0,0.0
1696287377173,0.234375,-0.038085938,0.9824219,0.375,-0.53125,0.125,0.0,0.0,0.0
1696287377233,0.21972656,-0.0390625,0.9628906,0.15625,0.0625,-0.0625,0.0,0.0,0.0
1696287377261,0.22363281,-0.040039062,0.95996094,0.03125,-0.1875,-0.1875,0.0,0.0,0.0
1696287377291,0.23535156,-0.040039062,0.9765625,0.15625,-0.1875,0.125,0.0,0.0,0.0
1696287377357,0.21875,-0.043945312,0.95996094,-0.03125,0.0,0.0625,-3.4375,-36.4375,-161.4375
1696287377381,0.22363281,-0.036132812,0.96972656,0.03125,-0.1875,0.25,0.0,0.0,0.0
1696287377411,0.21777344,-0.036132812,0.96191406,-0.03125,-0.28125,0.3125,0.0,0.0,0.0
1696287377535,0.23144531,-0.0390625,0.97558594,-0.15625,-0.65625,0.1875,0.0,0.0,0.0
1696287377537,0.21875,-0.034179688,0.9707031,0.03125,-0.59375,0.25,0.0,0.0,0.0
1696287377539,0.23046875,-0.041015625,0.97558594,-0.21875,-1.03125,0.125,0.0,0.0,0.0
1696287377595,0.22851562,-0.03125,0.98046875,-0.09375,-1.03125,-0.125,0.0,0.0,0.0
1696287377622,0.2421875,-0.0390625,0.9716797,0.03125,-0.96875,-0.0625,0.0,0.0,0.0
1696287377651,0.22460938,-0.043945312,0.9580078,0.21875,-1.6875,0.125,0.0,0.0,0.0
1696287377718,0.22949219,-0.04296875,0.9667969,-0.03125,-0.21875,-0.1875,0.0,0.0,0.0
1696287377742,0.24023438,-0.047851562,0.9707031,0.28125,-0.78125,-0.125,0.0,0.0,0.0
1696287377773,0.21972656,-0.0390625,0.9560547,0.21875,-0.59375,0.0625,0.0,0.0,0.0
1696287377801,0.22753906,-0.04296875,0.9628906,-0.09375,-1.34375,-0.1875,0.0,0.0,0.0
1696287377863,0.22851562,-0.0390625,0.9628906,-0.09375,-0.90625,0.1875,-4.9375,-35.6875,-163.25
1696287377893,0.23144531,-0.04296875,0.9765625,-0.15625,-1.5625,0.0625,0.0,0.0,0.0
1696287377921,0.23046875,-0.034179688,0.96191406,-0.40625,-0.40625,-0.4375,0.0,0.0,0.0
1696287378076,0.24121094,-0.037109375,0.9873047,-0.28125,-1.28125,-0.5625,0.0,0.0,0.0
1696287378078,0.24511719,-0.038085938,0.9785156,-0.28125,-0.53125,-0.25,0.0,0.0,0.0
1696287378080,0.23242188,-0.051757812,0.9707031,0.3125,-0.21875,0.0625,0.0,0.0,0.0
1696287378101,0.234375,-0.04296875,0.9667969,0.21875,-0.0625,-0.0625,0.0,0.0,0.0
1696287378133,0.23242188,-0.032226562,0.9433594,0.5625,0.0625,-0.125,0.0,0.0,0.0
1696287378162,0.23144531,-0.0390625,0.95214844,0.5,-0.34375,0.0625,0.0,0.0,0.0
1696287378226,0.234375,-0.033203125,0.9765625,0.15625,-0.21875,0.1875,0.0,0.0,0.0
1696287378252,0.23144531,-0.040039062,0.9580078,0.3125,-0.40625,0.25,0.0,0.0,0.0
1696287378281,0.24121094,-0.03515625,0.9667969,0.3125,0.0625,0.0,0.0,0.0,0.0
1696287378344,0.24023438,-0.04296875,0.9580078,0.4375,-0.1875,0.1875,-4.0625,-35.5,-162.375
1696287378372,0.2421875,-0.037109375,0.96484375,0.375,0.125,-0.125,0.0,0.0,0.0
1696287378400,0.234375,-0.038085938,0.95996094,0.3125,0.4375,-0.0625,0.0,0.0,0.0
1696287378465,0.23046875,-0.033203125,0.96484375,-0.34375,0.0,-0.375,0.0,0.0,0.0
1696287378494,0.2421875,-0.037109375,0.9560547,0.28125,0.125,0.0625,0.0,0.0,0.0
1696287378521,0.234375,-0.03515625,0.96972656,-0.03125,0.5,0.3125,0.0,0.0,0.0
1696287378674,0.24121094,-0.04296875,0.96484375,0.4375,0.0625,0.125,0.0,0.0,0.0
1696287378676,0.2421875,-0.044921875,0.9794922,0.3125,0.125,-0.125,0.0,0.0,0.0
1696287378677,0.23535156,-0.032226562,0.96972656,-0.34375,0.1875,-0.96875,0.0,0.0,0.0
1696287378702,0.25097656,-0.022460938,0.9560547,0.15625,0.75,-1.03125,0.0,0.0,0.0
1696287378732,0.23242188,-0.024414062,0.9716797,-0.84375,0.5,-0.3125,0.0,0.0,0.0
1696287378761,0.22753906,-0.03515625,0.96972656,0.21875,0.1875,0.5625,0.0,0.0,0.0
1696287378823,0.24023438,-0.032226562,0.96777344,-0.03125,-0.28125,0.96875,0.0,0.0,0.0
1696287378853,0.24121094,-0.049804688,0.9716797,-0.34375,-0.59375,0.1875,-3.0,-36.125,-162.9375
1696287378882,0.23242188,-0.041992188,0.9716797,0.15625,0.75,-0.3125,0.0,0.0,0.0
1696287379009,0.234375,-0.037109375,0.96777344,-0.09375,0.125,-0.5625,0.0,0.0,0.0
1696287379010,0.234375,-0.0390625,0.98046875,0.375,0.25,-0.4375,0.0,0.0,0.0
1696287379012,0.2265625,-0.041992188,0.9658203,0.03125,-0.1875,-0.25,0.0,0.0,0.0
1696287379095,0.234375,-0.03515625,0.96777344,-0.03125,-0.21875,-0.3125,0.0,0.0,0.0
1696287379097,0.234375,-0.032226562,0.9667969,0.3125,0.1875,0.125,0.0,0.0,0.0
1696287379119,0.22363281,-0.04296875,0.9628906,-0.34375,-0.21875,0.1875,0.0,0.0,0.0
1696287379182,0.234375,-0.030273438,0.9707031,-0.15625,-0.28125,0.125,0.0,0.0,0.0
1696287379213,0.23144531,-0.03515625,0.9794922,-0.03125,-0.0625,0.0,0.0,0.0,0.0
1696287379241,0.23730469,-0.036132812,0.9589844,0.21875,-0.0625,0.125,0.0,0.0,0.0
1696287379306,0.23339844,-0.03515625,0.9580078,-0.03125,-0.1875,-0.125,0.0,0.0,0.0
1696287379333,0.24609375,-0.030273438,0.9736328,0.03125,-0.125,-0.125,-2.875,-35.9375,-162.1875
1696287379361,0.23828125,-0.041992188,0.9589844,-0.03125,0.0,-0.25,0.0,0.0,0.0
1696287379424,0.23339844,-0.029296875,0.95996094,-0.03125,-0.28125,0.125,0.0,0.0,0.0
1696287379458,0.23632812,-0.041015625,0.9716797,0.375,0.4375,0.125,0.0,0.0,0.0
1696287379481,0.23828125,-0.02734375,0.9667969,-0.03125,-0.28125,0.0625,0.0,0.0,0.0
1696287379541,0.24121094,-0.026367188,0.9794922,0.15625,0.25,0.0,0.0,0.0,0.0
1696287379574,0.22753906,-0.034179688,0.9482422,0.3125,0.25,-0.125,0.0,0.0,0.0
1696287379603,0.23339844,-0.036132812,0.96191406,-0.03125,0.375,-0.3125,0.0,0.0,0.0
1696287379663,0.22558594,-0.038085938,0.96972656,0.21875,0.3125,-0.3125,0.0,0.0,0.0
1696287379696,0.23339844,-0.030273438,0.96777344,-0.21875,-0.21875,-0.1875,0.0,0.0,0.0
1696287379721,0.25195312,-0.037109375,0.9765625,-0.03125,-0.1875,0.125,0.0,0.0,0.0
1696287379784,0.23925781,-0.0390625,0.98535156,0.03125,-0.0625,0.0625,0.0,0.0,0.0
1696287379811,0.24121094,-0.034179688,0.9746094,-0.15625,0.375,-0.0625,0.0,0.0,0.0
1696287379840,0.24121094,-0.055664062,0.9863281,0.09375,0.4375,-0.125,-3.3125,-35.5,-162.625
1696287379902,0.23925781,-0.030273438,0.9667969,0.09375,-0.125,-0.25,0.0,0.0,0.0
1696287379932,0.22949219,-0.040039062,0.9707031,-0.03125,-0.34375,-0.3125,0.0,0.0,0.0
1696287379963,0.24414062,-0.043945312,0.9638672,-0.03125,-0.0625,-0.1875,0.0,0.0,0.0
1696287380113,0.24316406,-0.038085938,0.9658203,0.21875,0.25,0.125,0.0,0.0,0.0
1696287380117,0.24511719,-0.032226562,0.9716797,0.03125,-0.0625,-0.0625,0.0,0.0,0.0
1696287380118,0.24023438,-0.045898438,0.98046875,-0.09375,0.375,-0.0625,0.0,0.0,0.0
1696287380141,0.24023438,-0.041992188,0.96484375,0.15625,0.3125,-0.125,0.0,0.0,0.0
1696287380171,0.22558594,-0.04296875,0.96191406,0.21875,0.375,0.0,0.0,0.0,0.0
1696287380203,0.234375,-0.03125,0.9736328,-0.21875,0.0,-0.0625,0.0,0.0,0.0
1696287380265,0.2421875,-0.03125,0.96484375,0.03125,-0.0625,-0.125,0.0,0.0,0.0
1696287380293,0.23925781,-0.0390625,0.96777344,-0.15625,0.0625,-0.125,0.0,0.0,0.0
1696287380324,0.23339844,-0.03125,0.96875,0.09375,0.125,0.0625,-4.375,-35.5,-164.75
1696287380415,0.23828125,-0.037109375,0.9716797,-0.34375,0.125,0.125,0.0,0.0,0.0
1696287380419,0.22949219,-0.044921875,0.9716797,0.3125,0.625,0.0,0.0,0.0,0.0
1696287380440,0.23339844,-0.040039062,0.96484375,-0.34375,-0.125,0.0,0.0,0.0,0.0
1696287380501,0.22167969,-0.043945312,0.9511719,0.09375,-0.1875,-0.125,0.0,0.0,0.0
1696287380531,0.23144531,-0.043945312,0.97265625,-0.03125,-0.1875,-0.0625,0.0,0.0,0.0
1696287380561,0.24316406,-0.040039062,0.9746094,-0.09375,0.125,0.0,0.0,0.0,0.0
1696287380624,0.24023438,-0.043945312,0.97558594,0.3125,-0.125,0.0,0.0,0.0,0.0
1696287380653,0.23535156,-0.029296875,0.97753906,-0.09375,0.4375,0.125,0.0,0.0,0.0
1696287380682,0.23144531,-0.0390625,0.96972656,0.09375,0.125,0.0,0.0,0.0,0.0
1696287380743,0.23242188,-0.037109375,0.9560547,-0.09375,0.0,0.0,0.0,0.0,0.0
1696287380770,0.24316406,-0.041992188,0.9814453,0.03125,0.0,-0.0625,0.0,0.0,0.0
1696287380802,0.22753906,-0.041992188,0.9746094,0.09375,0.0625,0.0,0.0,0.0,0.0
1696287380866,0.23535156,-0.030273438,0.96484375,0.15625,0.0625,-0.0625,-2.25,-35.5,-164.75
1696287380894,0.24414062,-0.036132812,0.9746094,0.03125,-0.125,-0.125,0.0,0.0,0.0
1696287380925,0.23632812,-0.032226562,0.9667969,0.3125,0.125,-0.125,0.0,0.0,0.0
1696287381074,0.24414062,-0.041992188,0.96972656,0.28125,0.125,0.0,0.0,0.0,0.0
1696287381077,0.23828125,-0.033203125,0.96875,0.15625,0.0,0.0,0.0,0.0,0.0
1696287381079,0.23144531,-0.036132812,0.95703125,0.15625,-0.0625,-0.125,0.0,0.0,0.0
1696287381101,0.2421875,-0.044921875,0.9658203,-0.03125,-0.34375,-0.0625,0.0,0.0,0.0
1696287381132,0.23828125,-0.04296875,0.9746094,0.6875,0.5625,0.125,0.0,0.0,0.0
1696287381163,0.24511719,-0.03515625,0.98046875,-0.03125,-0.125,-0.1875,0.0,0.0,0.0
1696287381225,0.23632812,-0.043945312,0.9550781,0.625,0.5,-0.0625,0.0,0.0,0.0
1696287381253,0.24023438,-0.025390625,0.9472656,-0.21875,0.125,-0.1875,0.0,0.0,0.0
1696287381283,0.23535156,-0.045898438,0.9560547,0.4375,0.1875,0.0,0.0,0.0,0.0
1696287381345,0.24023438,-0.04296875,0.9628906,-0.28125,0.0,0.0,-2.25,-35.8125,-164.0
1696287381371,0.23828125,-0.036132812,0.96777344,0.375,0.3125,-0.125,0.0,0.0,0.0
1696287381402,0.24414062,-0.040039062,0.9609375,-0.09375,0.0625,-0.0625,0.0,0.0,0.0
1696287381463,0.24316406,-0.034179688,0.9628906,0.28125,0.5625,-0.0625,0.0,0.0,0.0
1696287381493,0.23242188,-0.034179688,0.9707031,0.09375,0.6875,-0.125,0.0,0.0,0.0
1696287381523,0.23632812,-0.03125,0.96972656,0.28125,0.0,-0.0625,0.0,0.0,0.0
1696287381585,0.23339844,-0.038085938,0.9667969,-0.28125,0.0,0.0,0.0,0.0,0.0
1696287381611,0.23828125,-0.034179688,0.9707031,0.15625,0.1875,0.0625,0.0,0.0,0.0
1696287381642,0.24023438,-0.029296875,0.9716797,-0.28125,0.375,0.1875,0.0,0.0,0.0
1696287381703,0.23046875,-0.029296875,0.9736328,0.03125,0.5625,-0.0625,0.0,0.0,0.0
1696287381733,0.24414062,-0.043945312,0.9814453,0.09375,0.4375,-0.3125,0.0,0.0,0.0
1696287381764,0.24609375,-0.03125,0.9716797,0.28125,0.1875,0.0,0.0,0.0,0.0
1696287381825,0.24121094,-0.030273438,0.97753906,0.21875,0.375,-0.25,0.0,0.0,0.0
1696287381852,0.23242188,-0.038085938,0.97265625,0.03125,0.25,-0.375,-3.75,-35.5,-164.4375
1696287381881,0.24316406,-0.0390625,0.9667969,0.15625,0.1875,-0.25,0.0,0.0,0.0
1696287382006,0.23828125,-0.03515625,0.9628906,-0.03125,0.0625,-0.25,0.0,0.0,0.0
1696287382008,0.2265625,-0.040039062,0.96191406,0.375,0.375,-0.0625,0.0,0.0,0.0
1696287382010,0.23828125,-0.03515625,0.97753906,0.09375,0.375,0.0625,0.0,0.0,0.0
1696287382063,0.23339844,-0.025390625,0.9746094,0.09375,0.25,0.0,0.0,0.0,0.0
1696287382095,0.22851562,-0.034179688,0.96972656,0.21875,0.3125,-0.125,0.0,0.0,0.0
1696287382124,0.23632812,-0.041015625,0.9716797,0.09375,0.1875,-0.125,0.0,0.0,0.0
1696287382181,0.23242188,-0.041992188,0.96484375,0.15625,0.1875,-0.1875,0.0,0.0,0.0
1696287382214,0.23535156,-0.041015625,0.9824219,0.03125,0.3125,-0.1875,0.0,0.0,0.0
1696287382241,0.23925781,-0.036132812,0.984375,0.21875,0.25,-0.0625,0.0,0.0,0.0
1696287382495,0.24121094,-0.038085938,0.9560547,0.28125,0.625,0.0,0.0,0.0,0.0
1696287382499,0.2421875,-0.038085938,0.96191406,0.09375,0.1875,-0.375,-4.625,-34.9375,-162.5
1696287382502,0.23339844,-0.034179688,0.9628906,0.3125,0.5,-0.375,0.0,0.0,0.0
1696287382504,0.23632812,-0.034179688,0.98046875,-0.03125,-0.21875,0.0,0.0,0.0,0.0
1696287382506,0.24804688,-0.03515625,0.96972656,0.28125,0.0,0.0625,0.0,0.0,0.0
1696287382507,0.24609375,-0.040039062,0.95996094,-0.28125,-0.0625,-0.3125,0.0,0.0,0.0
1696287382543,0.23046875,-0.045898438,0.9658203,0.21875,0.0,0.125,0.0,0.0,0.0
1696287382571,0.23828125,-0.037109375,0.97753906,0.15625,0.0,0.0625,0.0,0.0,0.0
1696287382602,0.23535156,-0.03125,0.9707031,0.15625,0.3125,0.0625,0.0,0.0,0.0
1696287382663,0.22265625,-0.028320312,0.9765625,0.375,0.5625,0.125,0.0,0.0,0.0
1696287382692,0.23535156,-0.029296875,0.984375,-0.28125,-0.125,-0.125,0.0,0.0,0.0
1696287382724,0.23535156,-0.041992188,0.9667969,-0.21875,-0.34375,0.0,0.0,0.0,0.0
1696287383020,0.22949219,-0.0390625,0.9609375,0.03125,-0.40625,0.4375,0.0,0.0,0.0
1696287383025,0.23535156,-0.037109375,0.9863281,0.15625,0.0,0.3125,0.0,0.0,0.0
1696287383027,0.24023438,-0.0390625,0.9707031,-0.28125,-0.34375,-0.09375,-4.375,-35.5,-162.0625
1696287383029,0.22265625,-0.037109375,0.9638672,-0.21875,0.0625,-0.28125,0.0,0.0,0.0
1696287383031,0.2265625,-0.029296875,0.9785156,0.03125,-0.40625,0.0,0.0,0.0,0.0
1696287383032,0.24023438,-0.040039062,0.9736328,-0.03125,-0.40625,0.1875,0.0,0.0,0.0
1696287383033,0.234375,-0.03515625,0.96875,-0.21875,-0.34375,0.3125,0.0,0.0,0.0
1696287383050,0.23046875,-0.032226562,0.9609375,-0.5625,-0.46875,0.1875,0.0,0.0,0.0
1696287383082,0.23339844,-0.036132812,0.95703125,-0.21875,-0.78125,0.1875,0.0,0.0,0.0
1696287383146,0.2421875,-0.040039062,0.9609375,0.03125,-0.125,0.1875,0.0,0.0,0.0
1696287383173,0.23339844,-0.041992188,0.96875,-0.21875,-0.25,0.0,0.0,0.0,0.0
1696287383204,0.23828125,-0.041992188,0.9638672,0.46875,0.125,-0.09375,0.0,0.0,0.0
1696287383266,0.23339844,-0.028320312,0.9560547,-0.09375,-0.1875,-0.15625,0.0,0.0,0.0
1696287383293,0.24023438,-0.032226562,0.9638672,0.03125,-0.25,0.0625,0.0,0.0,0.0
1696287383321,0.234375,-0.037109375,0.96484375,-0.03125,-0.25,0.0625,-1.9375,-34.75,-163.6875
1696287383384,0.23242188,-0.032226562,0.9746094,0.40625,0.125,0.375,0.0,0.0,0.0
1696287383412,0.24121094,-0.037109375,0.9638672,-0.15625,-0.1875,-0.21875,0.0,0.0,0.0
1696287383442,0.24023438,-0.037109375,0.9589844,-0.03125,0.125,-0.09375,0.0,0.0,0.0
1696287383506,0.23339844,-0.02734375,0.96484375,-0.28125,-0.34375,-0.09375,0.0,0.0,0.0
1696287383534,0.23632812,-0.0390625,0.9707031,0.03125,-0.0625,0.125,0.0,0.0,0.0
1696287383564,0.23828125,-0.02734375,0.97265625,-0.09375,-0.28125,0.1875,0.0,0.0,0.0
1696287383626,0.23925781,-0.032226562,0.96875,-0.09375,-0.125,0.0,0.0,0.0,0.0
1696287383654,0.24023438,-0.033203125,0.95996094,-0.34375,-0.0625,0.0,0.0,0.0,0.0
1696287383679,0.234375,-0.036132812,0.9746094,-0.09375,-0.125,0.25,0.0,0.0,0.0
1696287383742,0.23730469,-0.0390625,0.96777344,-0.03125,-0.125,0.375,0.0,0.0,0.0
1696287383771,0.234375,-0.037109375,0.97265625,0.03125,-0.0625,-0.0625,0.0,0.0,0.0
1696287383801,0.2421875,-0.032226562,0.9707031,0.09375,0.1875,-0.09375,0.0,0.0,0.0
1696287383959,0.22851562,-0.033203125,0.97265625,-0.28125,-0.78125,-0.15625,-5.6875,-36.6875,-161.75
1696287383961,0.234375,-0.038085938,0.98046875,0.34375,-0.1875,0.125,0.0,0.0,0.0
1696287383965,0.23828125,-0.030273438,0.96484375,-0.21875,0.0,0.0,0.0,0.0,0.0
1696287383982,0.23242188,-0.045898438,0.96484375,0.21875,-0.25,0.0,0.0,0.0,0.0
1696287384012,0.23828125,-0.038085938,0.9658203,-0.4375,-0.25,-0.0625,0.0,0.0,0.0
1696287384043,0.24023438,-0.041015625,0.9638672,0.03125,-0.28125,0.0625,0.0,0.0,0.0
1696287384101,0.24414062,-0.036132812,0.96777344,-0.03125,-0.125,0.1875,0.0,0.0,0.0
1696287384132,0.24023438,-0.03125,0.9707031,-0.03125,0.0,0.125,0.0,0.0,0.0
1696287384161,0.23828125,-0.032226562,0.96484375,-0.03125,-0.1875,-0.09375,0.0,0.0,0.0
1696287384347,0.23632812,-0.037109375,0.96777344,0.09375,-0.25,-0.0625,0.0,0.0,0.0
1696287384350,0.23339844,-0.03515625,0.98339844,-0.03125,-0.125,0.125,0.0,0.0,0.0
1696287384352,0.23339844,-0.03515625,0.953125,-0.03125,0.0,0.1875,0.0,0.0,0.0
1696287384354,0.23535156,-0.041015625,0.9667969,0.15625,-0.0625,0.125,-3.3125,-35.5,-163.375
1696287384373,0.22949219,-0.04296875,0.9746094,-0.09375,-0.25,0.0625,0.0,0.0,0.0
1696287384402,0.234375,-0.034179688,0.9716797,-0.34375,-0.40625,0.0625,0.0,0.0,0.0
1696287384461,0.23339844,-0.041015625,0.9746094,0.09375,-0.125,0.1875,0.0,0.0,0.0
1696287384495,0.24121094,-0.036132812,0.96191406,-0.34375,-0.1875,0.0625,0.0,0.0,0.0
1696287384523,0.2421875,-0.040039062,0.9746094,0.21875,-0.25,0.0,0.0,0.0,0.0
1696287384617,0.24609375,-0.038085938,0.96484375,-0.03125,0.0,0.0625,0.0,0.0,0.0
1696287384620,0.23632812,-0.038085938,0.9501953,-0.15625,0.0625,0.0625,0.0,0.0,0.0
1696287384643,0.22460938,-0.030273438,0.9892578,0.03125,0.0,0.0625,0.0,0.0,0.0
1696287384733,0.2421875,-0.03515625,0.98046875,-0.40625,-0.28125,0.0,0.0,0.0,0.0
1696287384735,0.23730469,-0.032226562,0.96972656,0.15625,0.25,0.0625,0.0,0.0,0.0
1696287384761,0.24511719,-0.0390625,0.96484375,-0.34375,-0.34375,-0.15625,0.0,0.0,0.0
1696287384913,0.22949219,-0.034179688,0.9785156,-0.03125,-0.25,0.125,0.0,0.0,0.0
1696287384915,0.24609375,-0.038085938,0.9560547,-0.09375,-0.25,0.125,-3.875,-35.9375,-164.125
1696287384917,0.24121094,-0.043945312,0.9716797,0.21875,0.0,0.125,0.0,0.0,0.0
1696287384941,0.23535156,-0.033203125,0.9560547,-0.09375,-0.1875,-0.21875,0.0,0.0,0.0
1696287384970,0.23144531,-0.032226562,0.96972656,0.34375,0.125,-0.09375,0.0,0.0,0.0
1696287385002,0.23242188,-0.029296875,0.96972656,-0.15625,-0.28125,-0.0625,0.0,0.0,0.0
1696287385062,0.24023438,-0.034179688,0.9707031,-0.09375,-0.25,0.0625,0.0,0.0,0.0
1696287385094,0.24121094,-0.036132812,0.96875,-0.03125,0.125,0.0625,0.0,0.0,0.0
1696287385121,0.2421875,-0.038085938,0.9814453,-0.09375,-0.0625,-0.0625,0.0,0.0,0.0
1696287385185,0.23828125,-0.036132812,0.9560547,-0.03125,0.25,-0.0625,0.0,0.0,0.0
1696287385214,0.234375,-0.041992188,0.9746094,-0.03125,-0.125,-0.09375,0.0,0.0,0.0
1696287385242,0.23339844,-0.029296875,0.95996094,-0.03125,0.0625,0.125,0.0,0.0,0.0
1696287385334,0.24121094,-0.0390625,0.9824219,-0.21875,-0.25,0.0,0.0,0.0,0.0
1696287385339,0.23925781,-0.032226562,0.9580078,-0.09375,0.125,0.0625,-4.1875,-36.4375,-162.8125
1696287385365,0.24804688,-0.045898438,0.95996094,-0.1875,-0.09375,-0.15625,0.0,0.0,0.0
1696287385422,0.24023438,-0.030273438,0.9814453,0.0,-0.03125,0.03125,0.0,0.0,0.0
1696287385453,0.24023438,-0.036132812,0.9667969,0.0,-0.03125,0.09375,0.0,0.0,0.0
1696287385483,0.23339844,-0.030273438,0.97265625,0.1875,0.21875,0.28125,0.0,0.0,0.0
1696287385545,0.234375,-0.041015625,0.9580078,0.125,0.40625,0.15625,0.0,0.0,0.0
1696287385574,0.24023438,-0.030273438,0.98046875,0.0625,0.09375,-0.03125,0.0,0.0,0.0
1696287385601,0.24804688,-0.037109375,0.95214844,0.125,-0.09375,-0.28125,0.0,0.0,0.0
1696287385727,0.2421875,-0.038085938,0.96484375,0.0,-0.09375,-0.28125,0.0,0.0,0.0
1696287385750,0.23925781,-0.041992188,0.9824219,0.5625,0.34375,0.15625,0.0,0.0,0.0
1696287385752,0.23535156,-0.036132812,0.9736328,-0.125,0.09375,-0.09375,0.0,0.0,0.0
1696287385780,0.24609375,-0.029296875,0.96484375,0.125,0.28125,-0.09375,0.0,0.0,0.0
1696287385811,0.24121094,-0.034179688,0.96484375,-0.0625,-0.15625,0.09375,0.0,0.0,0.0
1696287385842,0.25195312,-0.034179688,0.9511719,0.0,0.03125,0.15625,-4.0625,-35.5,-164.0
1696287385903,0.23828125,-0.03515625,0.9716797,-0.40625,-0.09375,-0.21875,0.0,0.0,0.0
1696287385934,0.23632812,-0.034179688,0.9580078,-0.3125,-0.03125,0.03125,0.0,0.0,0.0
1696287385966,0.234375,-0.036132812,0.9736328,0.1875,0.15625,0.15625,0.0,0.0,0.0
1696287386024,0.23242188,-0.041992188,0.9628906,0.0,-0.03125,-0.15625,0.0,0.0,0.0
1696287386054,0.24511719,-0.028320312,0.96972656,0.0625,0.15625,-0.09375,0.0,0.0,0.0
1696287386082,0.24121094,-0.028320312,0.9765625,0.1875,0.34375,-0.03125,0.0,0.0,0.0
1696287386146,0.22460938,-0.03125,0.9785156,0.0,0.09375,-0.15625,0.0,0.0,0.0
1696287386172,0.23632812,-0.037109375,0.9746094,0.0,0.03125,0.03125,0.0,0.0,0.0
1696287386206,0.23632812,-0.036132812,0.96484375,0.0,-0.09375,0.03125,0.0,0.0,0.0
1696287386265,0.24414062,-0.034179688,0.97265625,-0.125,-0.09375,0.15625,0.0,0.0,0.0
1696287386295,0.234375,-0.0390625,0.9746094,0.4375,0.6875,-0.03125,0.0,0.0,0.0
1696287386323,0.23828125,-0.037109375,0.9580078,-0.34375,0.09375,-0.21875,-3.75,-33.6875,-162.9375
1696287386351,0.22070312,-0.03125,0.9746094,0.1875,0.28125,-0.21875,0.0,0.0,0.0
1696287386413,0.24023438,-0.026367188,0.96777344,0.0,-0.09375,0.03125,0.0,0.0,0.0
1696287386442,0.24023438,-0.025390625,0.96777344,-0.0625,-0.09375,0.15625,0.0,0.0,0.0
1696287386473,0.23632812,-0.028320312,0.97265625,0.0,0.09375,-0.03125,0.0,0.0,0.0
1696287386538,0.234375,-0.026367188,0.9716797,-0.25,-0.09375,-0.09375,0.0,0.0,0.0
1696287386563,0.23828125,-0.04296875,0.96972656,-0.0625,-0.15625,0.34375,0.0,0.0,0.0
1696287386590,0.24023438,-0.041015625,0.9667969,-0.0625,-0.28125,0.21875,0.0,0.0,0.0
1696287386828,0.23925781,-0.03515625,0.9580078,-0.125,-0.15625,-0.15625,0.0,0.0,0.0
1696287386830,0.22558594,-0.041015625,0.97265625,0.0625,-0.15625,-0.09375,0.0,0.0,0.0
1696287386831,0.23144531,-0.03125,0.9716797,-0.1875,-0.59375,0.15625,0.0,0.0,0.0
1696287386832,0.22753906,-0.026367188,0.9814453,-0.3125,-0.34375,-0.03125,0.0,0.0,0.0
1696287386833,0.25,-0.04296875,0.96875,0.0,-0.09375,-0.03125,0.0,0.0,0.0
1696287386861,0.23535156,-0.040039062,0.9736328,-0.1875,-0.21875,0.09375,-5.125,-36.125,-162.9375
1696287386892,0.24023438,-0.034179688,0.9658203,0.375,0.09375,0.34375,0.0,0.0,0.0
1696287386922,0.23828125,-0.038085938,0.97265625,0.0625,0.03125,-0.09375,0.0,0.0,0.0
1696287386954,0.2265625,-0.028320312,0.96484375,-0.1875,0.34375,-0.28125,0.0,0.0,0.0
1696287387011,0.234375,-0.034179688,0.9628906,-0.0625,-0.03125,-0.09375,0.0,0.0,0.0
1696287387042,0.24316406,-0.034179688,0.97558594,0.0,-0.09375,0.15625,0.0,0.0,0.0
1696287387071,0.23632812,-0.03515625,0.96484375,0.0,0.21875,0.03125,0.0,0.0,0.0
1696287387225,0.234375,-0.037109375,0.9609375,0.0,0.09375,-0.15625,0.0,0.0,0.0
1696287387228,0.23828125,-0.028320312,0.97265625,-0.0625,0.09375,0.09375,0.0,0.0,0.0
1696287387231,0.24023438,-0.029296875,0.9716797,-0.25,-0.46875,0.21875,0.0,0.0,0.0
1696287387250,0.23242188,-0.038085938,0.9746094,-0.34375,-0.21875,0.03125,0.0,0.0,0.0
1696287387285,0.23535156,-0.037109375,0.9560547,0.0625,0.03125,0.15625,0.0,0.0,0.0
1696287387310,0.23828125,-0.032226562,0.95703125,-0.125,0.03125,-0.15625,-2.6875,-36.125,-164.0
1696287387376,0.23535156,-0.036132812,0.9736328,-0.1875,-0.09375,-0.21875,0.0,0.0,0.0
1696287387403,0.23535156,-0.036132812,0.9609375,0.0,0.21875,0.15625,0.0,0.0,0.0
1696287387434,0.23925781,-0.038085938,0.9716797,0.1875,0.03125,0.28125,0.0,0.0,0.0
1696287387496,0.24023438,-0.04296875,0.9736328,0.0625,0.03125,0.15625,0.0,0.0,0.0
1696287387524,0.23144531,-0.045898438,0.9560547,0.1875,0.15625,-0.03125,0.0,0.0,0.0
1696287387552,0.23046875,-0.025390625,0.9785156,0.0625,0.03125,0.09375,0.0,0.0,0.0
1696287387645,0.23242188,-0.030273438,0.9736328,-0.0625,0.28125,0.09375,0.0,0.0,0.0
1696287387704,0.23242188,-0.029296875,0.96191406,-0.0625,-0.15625,0.03125,0.0,0.0,0.0
1696287387709,0.23925781,-0.0390625,0.96972656,-0.25,-0.15625,-0.03125,0.0,0.0,0.0
1696287387732,0.234375,-0.041992188,0.9560547,-0.0625,-0.21875,0.03125,0.0,0.0,0.0
1696287387764,0.23925781,-0.037109375,0.9628906,-0.34375,-0.28125,0.03125,0.0,0.0,0.0
1696287387795,0.23535156,-0.034179688,0.97753906,0.4375,-0.15625,0.21875,0.0,0.0,0.0
1696287387853,0.24023438,-0.032226562,0.96972656,-0.25,-0.40625,-0.15625,-3.3125,-35.5,-162.375
1696287387881,0.234375,-0.032226562,0.9658203,0.3125,0.09375,-0.03125,0.0,0.0,0.0
1696287387913,0.23144531,-0.038085938,0.97265625,-0.125,-0.46875,0.03125,0.0,0.0,0.0
1696287387974,0.22753906,-0.034179688,0.9765625,0.1875,-0.53125,0.21875,0.0,0.0,0.0
1696287388002,0.234375,-0.030273438,0.96972656,0.0,-0.53125,0.40625,0.0,0.0,0.0
1696287388032,0.234375,-0.036132812,0.96484375,0.5,0.28125,0.75,0.0,0.0,0.0
1696287388157,0.24121094,-0.036132812,0.9628906,0.5625,-1.125,0.5,0.0,0.0,0.0
1696287388159,0.24804688,-0.030273438,0.9707031,0.5,-0.34375,0.6875,0.0,0.0,0.0
1696287388161,0.22460938,-0.028320312,0.95214844,0.0,0.34375,0.15625,0.0,0.0,0.0
1696287388305,0.23730469,-0.0234375,0.9589844,0.0,0.6875,0.03125,0.0,0.0,0.0
1696287388308,0.25,-0.032226562,0.9765625,-0.125,0.34375,-0.09375,0.0,0.0,0.0
1696287388310,0.23339844,-0.0390625,0.96972656,0.0,0.21875,0.4375,0.0,0.0,0.0
1696287388334,0.24511719,-0.026367188,0.9716797,0.25,0.28125,0.09375,-2.6875,-36.125,-162.625
1696287388366,0.2265625,-0.03515625,0.96972656,0.5625,-0.15625,0.40625,0.0,0.0,0.0
1696287388393,0.23046875,-0.036132812,0.9550781,0.625,-0.28125,0.40625,0.0,0.0,0.0
1696287388455,0.234375,-0.028320312,0.96484375,-0.78125,-0.59375,-0.09375,0.0,0.0,0.0
1696287388483,0.24316406,-0.025390625,0.9765625,-0.34375,0.15625,-0.28125,0.0,0.0,0.0
1696287388511,0.23339844,-0.0390625,0.97753906,-0.40625,-0.03125,-0.15625,0.0,0.0,0.0
1696287388573,0.22949219,-0.032226562,0.9667969,-0.3125,0.03125,0.09375,0.0,0.0,0.0
1696287388602,0.23144531,-0.034179688,0.97265625,-0.0625,-0.15625,0.21875,0.0,0.0,0.0
1696287388632,0.24121094,-0.03515625,0.96777344,0.1875,0.34375,0.03125,0.0,0.0,0.0
1696287388787,0.25097656,-0.037109375,0.95996094,0.3125,-0.34375,-0.03125,0.0,0.0,0.0
1696287388790,0.23632812,-0.026367188,0.9638672,-0.0625,0.21875,-0.46875,0.0,0.0,0.0
1696287388793,0.23730469,-0.03125,0.9609375,0.3125,0.34375,-0.40625,0.0,0.0,0.0
1696287388809,0.24804688,-0.0234375,0.97558594,-0.34375,-0.09375,-0.21875,0.0,0.0,0.0
1696287388841,0.23242188,-0.029296875,0.9746094,0.9375,0.75,0.03125,-4.375,-35.5,-162.9375
1696287388871,0.234375,-0.028320312,0.9765625,-0.71875,-0.28125,-0.21875,0.0,0.0,0.0
1696287388934,0.23339844,-0.03515625,0.9589844,0.4375,0.34375,-0.09375,0.0,0.0,0.0
1696287388964,0.23730469,-0.030273438,0.96777344,-0.25,-0.15625,0.03125,0.0,0.0,0.0
1696287388994,0.23632812,-0.034179688,0.9794922,0.125,0.28125,-0.15625,0.0,0.0,0.0
1696287389049,0.22949219,-0.037109375,0.9658203,-0.1875,-0.09375,-0.15625,0.0,0.0,0.0
1696287389085,0.24609375,-0.034179688,0.984375,0.3125,-0.09375,0.03125,0.0,0.0,0.0
1696287389112,0.2421875,-0.029296875,0.95703125,-0.3125,-0.15625,0.03125,0.0,0.0,0.0
1696287389263,0.23535156,-0.030273438,0.97265625,0.375,0.15625,0.09375,0.0,0.0,0.0
1696287389267,0.23632812,-0.037109375,0.9736328,-0.40625,-0.28125,0.03125,0.0,0.0,0.0
1696287389269,0.24707031,-0.037109375,0.96777344,0.6875,0.40625,0.21875,0.0,0.0,0.0
1696287389292,0.23535156,-0.028320312,0.96875,-0.34375,0.03125,-0.46875,0.0,0.0,0.0
1696287389325,0.23046875,-0.025390625,0.97558594,0.25,0.15625,-0.15625,-2.875,-36.6875,-162.8125
1696287389354,0.23144531,-0.030273438,0.9785156,-0.1875,0.03125,-0.21875,0.0,0.0,0.0
1696287389414,0.23632812,-0.020507812,0.9716797,-0.125,-0.34375,0.09375,0.0,0.0,0.0
1696287389443,0.22167969,-0.03515625,0.9560547,0.0,0.09375,0.09375,0.0,0.0,0.0
1696287389472,0.2421875,-0.030273438,0.9765625,-0.3125,-0.40625,0.09375,0.0,0.0,0.0
1696287389535,0.2265625,-0.036132812,0.96484375,0.1875,-0.34375,0.09375,0.0,0.0,0.0
1696287389563,0.24121094,-0.030273438,0.97558594,0.0625,-0.09375,-0.15625,0.0,0.0,0.0
1696287389596,0.234375,-0.026367188,0.96191406,0.25,-0.28125,-0.21875,0.0,0.0,0.0
1696287389653,0.23144531,-0.041992188,0.9609375,0.1875,0.03125,-0.28125,0.0,0.0,0.0
1696287389685,0.23535156,-0.03125,0.9550781,0.125,-0.15625,0.03125,0.0,0.0,0.0
1696287389714,0.23925781,-0.032226562,0.9628906,0.4375,-0.03125,0.09375,0.0,0.0,0.0
1696287389775,0.23339844,-0.032226562,0.9658203,0.0,-0.15625,0.03125,0.0,0.0,0.0
1696287389801,0.23144531,-0.038085938,0.96972656,0.25,0.09375,0.21875,0.0,0.0,0.0
1696287389834,0.23046875,-0.029296875,0.9560547,-0.40625,-0.34375,-0.09375,-3.75,-36.125,-163.375
1696287389894,0.23828125,-0.029296875,0.9550781,0.125,-0.21875,0.03125,0.0,0.0,0.0
1696287389926,0.23144531,-0.03515625,0.96875,-0.3125,-0.46875,-0.03125,0.0,0.0,0.0
1696287390278,0.24121094,-0.032226562,0.9707031,-0.1875,-0.28125,-0.34375,0.0,0.0,0.0
1696287390280,0.23632812,-0.034179688,0.96191406,-0.0625,-0.03125,-0.09375,0.0,0.0,0.0
1696287390282,0.234375,-0.028320312,0.97265625,-0.1875,-0.28125,-0.03125,0.0,0.0,0.0
1696287390284,0.234375,-0.034179688,0.9707031,0.25,-0.34375,0.21875,0.0,0.0,0.0
1696287390286,0.22753906,-0.033203125,0.9628906,0.0,-0.46875,0.21875,0.0,0.0,0.0
1696287390288,0.234375,-0.029296875,0.9658203,-0.1875,-0.59375,0.21875,0.0,0.0,0.0
1696287390289,0.24023438,-0.032226562,0.9638672,0.1875,-0.28125,0.03125,0.0,0.0,0.0
1696287390290,0.23632812,-0.033203125,0.95214844,-0.59375,-0.28125,-0.28125,0.0,0.0,0.0
1696287390315,0.24121094,-0.030273438,0.9746094,-0.40625,-0.46875,-0.15625,0.0,0.0,0.0
1696287390317,0.24121094,-0.03125,0.9628906,-0.0625,-0.34375,0.21875,-2.6875,-34.75,-164.75
1696287390374,0.24511719,-0.041992188,0.9609375,-0.3125,-0.53125,0.4375,0.0,0.0,0.0
1696287390400,0.23144531,-0.03125,0.95996094,0.5625,0.40625,0.21875,0.0,0.0,0.0
1696287390434,0.23925781,-0.030273438,0.9580078,-0.46875,-0.28125,-0.15625,0.0,0.0,0.0
1696287390496,0.24121094,-0.021484375,0.96777344,0.1875,0.03125,-0.28125,0.0,0.0,0.0
1696287390523,0.22851562,-0.036132812,0.96777344,-0.3125,-0.40625,-0.15625,0.0,0.0,0.0
1696287390555,0.23242188,-0.026367188,0.96191406,0.0625,-0.40625,0.15625,0.0,0.0,0.0
1696287390739,0.22558594,-0.032226562,0.97753906,0.0625,-0.03125,0.09375,0.0,0.0,0.0
1696287390742,0.23632812,-0.028320312,0.9716797,-0.1875,-0.21875,0.09375,0.0,0.0,0.0
1696287390743,0.23535156,-0.03125,0.95996094,-0.34375,-0.28125,-0.15625,0.0,0.0,0.0
1696287390745,0.23242188,-0.03515625,0.9658203,0.0,-0.03125,0.09375,0.0,0.0,0.0
1696287390763,0.23632812,-0.04296875,0.9707031,0.0,-0.09375,0.15625,0.0,0.0,0.0
1696287390794,0.23632812,-0.03125,0.96191406,0.125,-0.03125,-0.03125,0.0,0.0,0.0
1696287390853,0.23632812,-0.029296875,0.95410156,-0.0625,-0.21875,-0.21875,-3.0,-35.5,-162.625
1696287390882,0.24023438,-0.03125,0.98046875,0.125,-0.09375,-0.09375,0.0,0.0,0.0
1696287390911,0.2421875,-0.0390625,0.9511719,-0.0625,-0.40625,0.03125,0.0,0.0,0.0
1696287390976,0.22949219,-0.030273438,0.9794922,0.375,0.28125,0.15625,0.0,0.0,0.0
1696287390999,0.2421875,-0.034179688,0.97753906,-0.0625,-0.59375,-0.09375,0.0,0.0,0.0
1696287391034,0.23632812,-0.025390625,0.96191406,-0.0625,-0.21875,-0.09375,0.0,0.0,0.0
1696287391093,0.24707031,-0.03515625,0.9824219,-0.0625,-0.34375,-0.15625,0.0,0.0,0.0
1696287391125,0.22851562,-0.0234375,0.9765625,0.0,0.03125,0.03125,0.0,0.0,0.0
1696287391152,0.23828125,-0.034179688,0.9941406,0.0,0.03125,0.15625,0.0,0.0,0.0
1696287391215,0.22460938,-0.040039062,0.96484375,-0.1875,-0.21875,-0.15625,0.0,0.0,0.0
1696287391240,0.24023438,-0.030273438,0.97558594,0.0,-0.15625,0.03125,0.0,0.0,0.0
1696287391273,0.23144531,-0.030273438,0.97558594,-0.0625,-0.53125,0.09375,0.0,0.0,0.0
1696287391336,0.24316406,-0.034179688,0.96972656,-0.25,-0.21875,0.03125,-2.6875,-36.875,-162.625
1696287391363,0.23632812,-0.04296875,0.96777344,0.25,-0.09375,-0.09375,0.0,0.0,0.0
1696287391395,0.24023438,-0.034179688,0.95703125,-0.0625,-0.03125,0.09375,0.0,0.0,0.0
1696287391457,0.22363281,-0.036132812,0.9667969,-0.25,-0.34375,0.03125,0.0,0.0,0.0
1696287391481,0.22949219,-0.04296875,0.9794922,0.0625,-0.09375,0.09375,0.0,0.0,0.0
1696287391513,0.23730469,-0.0390625,0.9765625,0.0,0.03125,0.09375,0.0,0.0,0.0
1696287391573,0.24121094,-0.032226562,0.95996094,0.0625,-0.40625,0.15625,0.0,0.0,0.0
1696287391605,0.24121094,-0.038085938,0.96484375,0.0,0.15625,-0.09375,0.0,0.0,0.0
1696287391635,0.23632812,-0.028320312,0.95703125,-0.34375,-0.40625,-0.21875,0.0,0.0,0.0
1696287391691,0.23925781,-0.03515625,0.9707031,0.125,-0.03125,0.09375,0.0,0.0,0.0
1696287391724,0.24023438,-0.0234375,0.95410156,-0.3125,-0.15625,0.03125,0.0,0.0,0.0
1696287391753,0.24316406,-0.029296875,0.96484375,-0.1875,0.21875,-0.21875,0.0,0.0,0.0
1696287391812,0.23828125,-0.0390625,0.9580078,-0.0625,-0.15625,-0.09375,0.0,0.0,0.0
1696287391843,0.23925781,-0.028320312,0.9746094,-0.3125,-0.09375,0.1875,-2.125,-35.6875,-162.8125
1696287391874,0.24023438,-0.033203125,0.95996094,0.21875,0.15625,0.0,0.0,0.0,0.0
1696287391937,0.23144531,-0.034179688,0.9628906,-0.21875,-0.09375,0.0625,0.0,0.0,0.0
1696287391963,0.24023438,-0.033203125,0.9707031,0.03125,0.28125,-0.0625,0.0,0.0,0.0
1696287391993,0.24511719,-0.034179688,0.95996094,0.21875,0.15625,0.0,0.0,0.0,0.0
1696287392055,0.23046875,-0.028320312,0.96972656,-0.21875,-0.3125,0.0,0.0,0.0,0.0
1696287392081,0.22949219,-0.034179688,0.953125,0.46875,0.21875,-0.0625,0.0,0.0,0.0
1696287392112,0.24023438,-0.034179688,0.9609375,-0.21875,-0.03125,0.0,0.0,0.0,0.0
1696287392174,0.23535156,-0.038085938,0.9707031,0.78125,0.46875,-0.0625,0.0,0.0,0.0
1696287392204,0.23535156,-0.030273438,0.9550781,-0.21875,0.03125,-0.09375,0.0,0.0,0.0
1696287392264,0.23535156,-0.030273438,0.9746094,0.03125,0.40625,-0.15625,0.0,0.0,0.0
1696287392290,0.23925781,-0.037109375,0.98046875,-0.09375,0.15625,0.1875,0.0,0.0,0.0
1696287392326,0.23632812,-0.026367188,0.96777344,0.03125,0.03125,0.0,-3.875,-36.4375,-164.125
1696287392352,0.23535156,-0.038085938,0.96777344,-0.03125,0.21875,-0.0625,0.0,0.0,0.0
1696287392565,0.23339844,-0.040039062,0.97265625,0.03125,0.09375,-0.15625,0.0,0.0,0.0
1696287392568,0.24023438,-0.0234375,0.96777344,0.03125,0.09375,-0.09375,0.0,0.0,0.0
1696287392570,0.23144531,-0.033203125,0.9765625,0.15625,0.09375,-0.0625,0.0,0.0,0.0
1696287392572,0.24023438,-0.03515625,0.9667969,-0.21875,0.15625,-0.09375,0.0,0.0,0.0
1696287392574,0.23242188,-0.036132812,0.96777344,0.59375,0.28125,0.0,0.0,0.0,0.0
1696287392591,0.23632812,-0.025390625,0.96972656,-0.5,-0.09375,-0.09375,0.0,0.0,0.0
1696287392656,0.22558594,-0.028320312,0.97558594,0.28125,0.21875,0.0,0.0,0.0,0.0
1696287392683,0.23828125,-0.032226562,0.95996094,-0.21875,-0.03125,0.0625,0.0,0.0,0.0
1696287392713,0.234375,-0.036132812,0.99316406,0.46875,0.21875,-0.0625,0.0,0.0,0.0
1696287392775,0.23242188,-0.036132812,0.97558594,-0.25,0.09375,-0.15625,0.0,0.0,0.0
1696287392808,0.23144531,-0.0234375,0.9736328,0.21875,-0.09375,-0.15625,0.0,0.0,0.0
1696287392832,0.234375,-0.038085938,0.9580078,-0.09375,-0.03125,-0.09375,-4.1875,-35.1875,-164.125
1696287392988,0.23632812,-0.03515625,0.95996094,-0.03125,-0.03125,0.0,0.0,0.0,0.0
1696287392990,0.24023438,-0.036132812,0.99121094,0.03125,0.09375,-0.0625,0.0,0.0,0.0
1696287392991,0.22949219,-0.03125,0.96484375,-0.3125,-0.1875,-0.15625,0.0,0.0,0.0
1696287393014,0.23632812,-0.029296875,0.9814453,0.15625,0.21875,0.25,0.0,0.0,0.0
1696287393042,0.2265625,-0.02734375,0.9707031,0.21875,0.03125,0.1875,0.0,0.0,0.0
1696287393071,0.23828125,-0.034179688,0.96484375,-0.03125,-0.09375,-0.09375,0.0,0.0,0.0
1696287393133,0.23632812,-0.028320312,0.9707031,0.09375,-0.03125,-0.40625,0.0,0.0,0.0
1696287393162,0.23828125,-0.032226562,0.97265625,-0.21875,-0.3125,-0.09375,0.0,0.0,0.0
1696287393194,0.23046875,-0.032226562,0.9707031,0.03125,0.15625,0.125,0.0,0.0,0.0
1696287393255,0.23242188,-0.029296875,0.95703125,0.09375,-0.03125,0.0625,0.0,0.0,0.0
1696287393281,0.23828125,-0.03125,0.96484375,0.09375,-0.1875,0.1875,0.0,0.0,0.0
1696287393312,0.23535156,-0.02734375,0.98339844,0.40625,0.34375,0.0625,-3.75,-35.8125,-163.6875
1696287393435,0.24023438,-0.024414062,0.9472656,-0.3125,0.03125,-0.21875,0.0,0.0,0.0
1696287393437,0.23632812,-0.03515625,0.96972656,0.09375,-0.09375,-0.15625,0.0,0.0,0.0
1696287393439,0.24121094,-0.033203125,0.9746094,-0.15625,-0.1875,0.0625,0.0,0.0,0.0
1696287393492,0.23535156,-0.02734375,0.9707031,-0.25,-0.375,0.125,0.0,0.0,0.0
1696287393526,0.23730469,-0.037109375,0.9873047,0.21875,0.28125,0.125,0.0,0.0,0.0
1696287393551,0.23242188,-0.03515625,0.97558594,-0.375,-0.375,-0.15625,0.0,0.0,0.0
1696287393615,0.234375,-0.03125,0.9746094,0.15625,0.09375,-0.09375,0.0,0.0,0.0
1696287393643,0.23339844,-0.029296875,0.9746094,0.09375,-0.1875,0.0,0.0,0.0,0.0
1696287393673,0.24023438,-0.03125,0.96972656,0.15625,-0.375,0.0,0.0,0.0,0.0
1696287393733,0.23339844,-0.037109375,0.9707031,-0.25,-0.25,-0.21875,0.0,0.0,0.0
1696287393763,0.2421875,-0.033203125,0.9794922,0.21875,-0.25,0.0625,0.0,0.0,0.0
1696287393792,0.23925781,-0.032226562,0.97265625,-0.5,-0.25,0.125,0.0,0.0,0.0
1696287393852,0.22460938,-0.030273438,0.9589844,0.09375,-0.25,0.25,-3.75,-36.875,-163.6875
1696287393881,0.24804688,-0.032226562,0.97753906,0.03125,0.09375,0.0,0.0,0.0,0.0
1696287393913,0.24414062,-0.036132812,0.9667969,0.09375,0.03125,-0.0625,0.0,0.0,0.0
1696287394032,0.24023438,-0.0390625,0.9589844,0.09375,-0.03125,0.0625,0.0,0.0,0.0
1696287394037,0.23828125,-0.026367188,0.94921875,-0.09375,-0.09375,-0.28125,0.0,0.0,0.0
1696287394038,0.23925781,-0.04296875,0.9658203,0.28125,0.28125,0.0625,0.0,0.0,0.0
1696287394090,0.23046875,-0.021484375,0.96972656,-0.25,-0.15625,0.125,0.0,0.0,0.0
1696287394122,0.24511719,-0.03125,0.9746094,-0.03125,0.09375,-0.28125,0.0,0.0,0.0
1696287394152,0.24023438,-0.029296875,0.96191406,-0.21875,-0.1875,-0.0625,0.0,0.0,0.0
1696287394211,0.2421875,-0.02734375,0.98046875,-0.25,-0.09375,0.0625,0.0,0.0,0.0
1696287394242,0.23828125,-0.033203125,0.9667969,0.21875,0.03125,0.0625,0.0,0.0,0.0
1696287394273,0.23632812,-0.036132812,0.95703125,0.15625,0.03125,0.0,0.0,0.0,0.0
1696287394335,0.24121094,-0.029296875,0.9707031,-0.21875,-0.09375,-0.09375,0.0,0.0,0.0
1696287394363,0.23144531,-0.038085938,0.9667969,0.03125,-0.15625,-0.0625,-3.75,-35.8125,-163.6875
1696287394393,0.2421875,-0.03125,0.9589844,-0.03125,-0.25,0.125,0.0,0.0,0.0
1696287394453,0.24414062,-0.034179688,0.9658203,0.09375,0.03125,0.0625,0.0,0.0,0.0
1696287394483,0.24316406,-0.022460938,0.9716797,0.28125,0.46875,0.0,0.0,0.0,0.0
1696287394544,0.23535156,-0.038085938,0.96484375,-0.03125,-0.09375,-0.25,0.0,0.0,0.0
1696287394546,0.24023438,-0.02734375,0.9746094,-0.28125,0.03125,-0.25,0.0,0.0,0.0
1696287394599,0.24609375,-0.034179688,0.9550781,0.28125,-0.03125,0.0625,0.0,0.0,0.0
1696287394634,0.24023438,-0.03515625,0.9609375,-0.21875,-0.03125,0.1875,0.0,0.0,0.0
1696287394696,0.23535156,-0.032226562,0.9707031,0.03125,0.28125,0.0625,0.0,0.0,0.0
1696287394722,0.23535156,-0.040039062,0.95996094,-0.46875,-0.40625,-0.1875,0.0,0.0,0.0
1696287394752,0.2421875,-0.032226562,0.98046875,0.15625,0.09375,-0.1875,0.0,0.0,0.0
1696287394785,0.234375,-0.030273438,0.96484375,-0.09375,0.03125,-0.125,0.0,0.0,0.0
1696287394840,0.24121094,-0.038085938,0.9609375,0.09375,-0.09375,0.1875,-3.0,-34.0,-162.625
1696287394872,0.23242188,-0.032226562,0.96777344,-0.09375,0.03125,-0.0625,0.0,0.0,0.0
1696287394901,0.23339844,-0.025390625,0.9658203,0.03125,0.21875,0.0625,0.0,0.0,0.0
1696287394967,0.23144531,-0.03515625,0.96972656,-0.21875,-0.34375,0.0625,0.0,0.0,0.0
1696287394991,0.23925781,-0.026367188,0.9580078,0.21875,0.03125,0.1875,0.0,0.0,0.0
1696287395024,0.2421875,-0.021484375,0.9580078,-0.15625,0.09375,0.25,0.0,0.0,0.0
1696287395085,0.23730469,-0.03515625,0.9794922,0.5,0.09375,-0.125,0.0,0.0,0.0
1696287395113,0.23632812,-0.032226562,0.96484375,-0.34375,-0.03125,-0.125,0.0,0.0,0.0
1696287395141,0.22949219,-0.02734375,0.9746094,0.15625,0.34375,-0.1875,0.0,0.0,0.0
1696287395201,0.23535156,-0.030273438,0.96777344,-0.21875,0.28125,0.0625,0.0,0.0,0.0
1696287395232,0.23535156,-0.030273438,0.9658203,-0.28125,-0.15625,0.1875,0.0,0.0,0.0
1696287395263,0.23632812,-0.03515625,0.9746094,0.09375,0.34375,-0.0625,0.0,0.0,0.0
1696287395477,0.24023438,-0.036132812,0.9658203,-0.34375,-0.09375,-0.1875,0.0,0.0,0.0
1696287395481,0.24414062,-0.038085938,0.9658203,0.3125,0.15625,0.25,-3.875,-35.6875,-162.8125
1696287395484,0.23828125,-0.036132812,0.9609375,-0.03125,0.53125,0.0,0.0,0.0,0.0
1696287395486,0.23925781,-0.0234375,0.9550781,0.09375,0.875,-0.1875,0.0,0.0,0.0
1696287395488,0.24121094,-0.03125,0.9667969,0.5,0.34375,-0.375,0.0,0.0,0.0
1696287395500,0.23242188,-0.028320312,0.9609375,-0.34375,0.15625,-0.125,0.0,0.0,0.0
1696287395565,0.24316406,-0.040039062,0.9902344,0.03125,0.46875,0.125,0.0,0.0,0.0
1696287395601,0.234375,-0.03515625,0.9580078,0.15625,0.09375,0.3125,0.0,0.0,0.0
1696287395625,0.24023438,-0.02734375,0.9638672,0.09375,0.34375,-0.0625,0.0,0.0,0.0
1696287395683,0.23535156,-0.047851562,0.97753906,0.21875,0.28125,-0.3125,0.0,0.0,0.0
1696287395715,0.234375,-0.02734375,0.9658203,0.03125,0.40625,-0.3125,0.0,0.0,0.0
1696287395741,0.234375,-0.030273438,0.9707031,-0.03125,0.03125,-0.1875,0.0,0.0,0.0
1696287395805,0.23144531,-0.03515625,0.9628906,0.03125,0.21875,0.0,0.0,0.0,0.0
1696287395834,0.24511719,-0.02734375,0.9765625,-0.09375,0.03125,0.0,-2.125,-33.875,-163.875
1696287395866,0.2265625,-0.036132812,0.9658203,-0.21875,0.03125,-0.0625,0.0,0.0,0.0
1696287395955,0.23925781,-0.029296875,0.96972656,0.15625,-0.03125,-0.125,0.0,0.0,0.0
1696287395962,0.23144531,-0.030273438,0.9609375,0.03125,0.28125,-0.0625,0.0,0.0,0.0
1696287395984,0.23925781,-0.032226562,0.96777344,0.03125,0.09375,-0.0625,0.0,0.0,0.0
1696287396046,0.23242188,-0.032226562,0.9746094,0.375,0.28125,-0.0625,0.0,0.0,0.0
1696287396072,0.24023438,-0.032226562,0.9658203,-0.46875,0.03125,-0.0625,0.0,0.0,0.0
1696287396101,0.22753906,-0.040039062,0.9589844,0.21875,0.21875,-0.0625,0.0,0.0,0.0
1696287396166,0.234375,-0.033203125,0.9746094,-0.34375,0.09375,-0.1875,0.0,0.0,0.0
1696287396191,0.23925781,-0.034179688,0.9765625,0.15625,-0.09375,0.0,0.0,0.0,0.0
1696287396221,0.23730469,-0.037109375,0.96875,0.21875,0.46875,0.0625,0.0,0.0,0.0
1696287396281,0.23925781,-0.033203125,0.9609375,-0.09375,0.09375,-0.1875,0.0,0.0,0.0
1696287396309,0.22949219,-0.034179688,0.97753906,-0.09375,0.15625,-0.375,0.0,0.0,0.0
1696287396341,0.234375,-0.032226562,0.9560547,-0.09375,-0.03125,0.0,-4.625,-35.1875,-164.125
1696287396465,0.22558594,-0.02734375,0.9716797,-0.15625,-0.09375,0.125,0.0,0.0,0.0
1696287396469,0.23632812,-0.037109375,0.9658203,0.15625,0.15625,0.125,0.0,0.0,0.0
1696287396470,0.24023438,-0.036132812,0.96484375,0.03125,0.03125,0.0,0.0,0.0,0.0
1696287396522,0.23730469,-0.037109375,0.9609375,-0.03125,-0.03125,-0.25,0.0,0.0,0.0
1696287396554,0.23730469,-0.028320312,0.9667969,-0.09375,-0.03125,-0.25,0.0,0.0,0.0
1696287396585,0.23339844,-0.02734375,0.9628906,0.03125,0.03125,0.0,0.0,0.0,0.0
1696287396649,0.2265625,-0.02734375,0.96484375,-0.09375,-0.03125,0.0,0.0,0.0,0.0
1696287396670,0.22753906,-0.03125,0.96972656,0.09375,0.09375,0.0,0.0,0.0,0.0
1696287396701,0.23144531,-0.03125,0.96875,0.09375,0.09375,-0.125,0.0,0.0,0.0
1696287396855,0.23828125,-0.03125,0.96484375,-0.21875,-0.21875,-0.1875,0.0,0.0,0.0
1696287396860,0.23535156,-0.032226562,0.97558594,0.5,0.40625,0.25,0.0,0.0,0.0
1696287396865,0.2421875,-0.028320312,0.97753906,-0.46875,-0.28125,-0.125,-3.125,-34.1875,-164.125
1696287396879,0.23828125,-0.0234375,0.97265625,0.4375,0.21875,-0.25,0.0,0.0,0.0
1696287396913,0.22851562,-0.036132812,0.97265625,-0.40625,-0.09375,-0.25,0.0,0.0,0.0
1696287396948,0.24804688,-0.029296875,0.9638672,-0.03125,-0.53125,0.0625,0.0,0.0,0.0
1696287397004,0.22363281,-0.029296875,0.9746094,-0.09375,-0.34375,0.40625,0.0,0.0,0.0
1696287397034,0.24316406,-0.03515625,0.95703125,-0.34375,-0.46875,0.125,0.0,0.0,0.0
1696287397063,0.23242188,-0.034179688,0.96972656,0.3125,-0.40625,0.0,0.0,0.0,0.0
1696287397123,0.23339844,-0.03125,0.9716797,-0.21875,-0.15625,-0.125,0.0,0.0,0.0
1696287397153,0.23339844,-0.034179688,0.9707031,0.3125,-0.46875,0.0625,0.0,0.0,0.0
1696287397185,0.234375,-0.03515625,0.9707031,-0.21875,-0.15625,0.0,0.0,0.0,0.0
1696287397305,0.24023438,-0.034179688,0.95410156,-0.09375,-0.15625,0.0,0.0,0.0,0.0
1696287397308,0.24511719,-0.030273438,0.97265625,-0.03125,-0.34375,0.125,0.0,0.0,0.0
1696287397310,0.234375,-0.030273438,0.97265625,-0.03125,-0.09375,0.25,0.0,0.0,0.0
1696287397361,0.24804688,-0.033203125,0.97265625,0.03125,0.28125,-0.0625,-4.0625,-35.5,-161.3125
1696287397391,0.23242188,-0.038085938,0.9746094,0.15625,0.09375,-0.25,0.0,0.0,0.0
1696287397422,0.22949219,-0.028320312,0.98535156,0.4375,0.40625,-0.125,0.0,0.0,0.0
1696287397484,0.23144531,-0.029296875,0.9658203,-0.21875,-0.03125,-0.4375,0.0,0.0,0.0
1696287397513,0.234375,-0.03125,0.9873047,0.15625,0.34375,0.0,0.0,0.0,0.0
1696287397545,0.23828125,-0.02734375,0.97265625,-0.46875,0.09375,-0.0625,0.0,0.0,0.0
1696287397605,0.23632812,-0.029296875,0.96484375,0.03125,0.09375,0.125,0.0,0.0,0.0
1696287397633,0.23339844,-0.036132812,0.9550781,-0.15625,-0.09375,0.0625,0.0,0.0,0.0
1696287397664,0.23339844,-0.0390625,0.96875,-0.28125,-0.03125,0.0,0.0,0.0,0.0
1696287397958,0.234375,-0.038085938,0.9716797,0.03125,0.28125,-0.0625,0.0,0.0,0.0
1696287397962,0.23046875,-0.0390625,0.9658203,0.15625,0.21875,-0.0625,0.0,0.0,0.0
1696287397964,0.24511719,-0.024414062,0.96972656,-0.28125,-0.03125,-0.3125,0.0,0.0,0.0
1696287397968,0.23242188,-0.028320312,0.97265625,-0.09375,0.15625,-0.1875,-3.0,-36.5625,-163.375
1696287397970,0.234375,-0.029296875,0.97558594,-0.03125,-0.03125,0.1875,0.0,0.0,0.0
1696287397971,0.23828125,-0.032226562,0.96191406,0.03125,0.21875,0.375,0.0,0.0,0.0
1696287397973,0.2421875,-0.025390625,0.97265625,-0.03125,-0.09375,0.0,0.0,0.0,0.0
1696287397993,0.24121094,-0.03125,0.95703125,0.03125,-0.03125,-0.125,0.0,0.0,0.0
1696287398024,0.23339844,-0.034179688,0.96484375,-0.59375,0.03125,-0.125,0.0,0.0,0.0
1696287398086,0.23828125,-0.018554688,0.9814453,0.21875,0.09375,-0.125,0.0,0.0,0.0
1696287398112,0.24121094,-0.036132812,0.953125,-0.46875,-0.03125,0.125,0.0,0.0,0.0
1696287398140,0.24023438,-0.017578125,0.96191406,0.21875,0.15625,-0.0625,0.0,0.0,0.0
1696287398243,0.22949219,-0.033203125,0.97753906,-0.15625,0.09375,-0.1875,0.0,0.0,0.0
1696287398245,0.23925781,-0.032226562,0.9667969,-0.21875,-0.15625,-0.0625,0.0,0.0,0.0
1696287398260,0.24121094,-0.038085938,0.99316406,0.09375,0.15625,0.25,0.0,0.0,0.0
1696287398385,0.24414062,-0.041015625,0.9658203,-0.40625,-0.09375,0.0,0.0,0.0,0.0
1696287398387,0.24414062,-0.034179688,0.95703125,0.15625,0.03125,0.0,-3.125,-34.625,-162.8125
1696287398389,0.234375,-0.03125,0.9746094,-0.1875,-0.4375,0.0,0.0,0.0,0.0
1696287398443,0.24023438,-0.032226562,0.9609375,0.0,-0.25,0.0,0.0,0.0,0.0
1696287398472,0.23828125,-0.033203125,0.9658203,0.0,0.0625,-0.125,0.0,0.0,0.0
1696287398503,0.23535156,-0.029296875,0.9628906,0.0625,0.375,0.125,0.0,0.0,0.0
1696287398563,0.23632812,-0.0390625,0.96484375,0.0625,-0.4375,0.0625,0.0,0.0,0.0
1696287398593,0.2265625,-0.028320312,0.96777344,0.0625,0.1875,-0.125,0.0,0.0,0.0
1696287398623,0.23339844,-0.028320312,0.9716797,0.0625,0.0625,-0.125,0.0,0.0,0.0
1696287398774,0.23144531,-0.033203125,0.9609375,0.0,-0.125,0.0,0.0,0.0,0.0
1696287398778,0.23535156,-0.025390625,0.9658203,-0.125,-0.125,-0.0625,0.0,0.0,0.0
1696287398779,0.23242188,-0.029296875,0.9794922,-0.0625,0.125,0.0,0.0,0.0,0.0
1696287398802,0.24121094,-0.040039062,0.98046875,-0.0625,0.0,-0.1875,0.0,0.0,0.0
1696287398836,0.24023438,-0.02734375,0.97265625,0.125,-0.25,0.125,-4.1875,-34.1875,-164.625
1696287398862,0.23632812,-0.036132812,0.9814453,-0.125,-0.0625,0.1875,0.0,0.0,0.0
1696287398924,0.23046875,-0.036132812,0.9609375,0.0625,0.1875,0.0625,0.0,0.0,0.0
1696287398952,0.23535156,-0.021484375,0.9765625,0.1875,0.125,-0.1875,0.0,0.0,0.0
1696287398984,0.234375,-0.024414062,0.9667969,-0.125,-0.1875,-0.0625,0.0,0.0,0.0
1696287399044,0.24414062,-0.0390625,0.9814453,0.1875,-0.3125,0.0,0.0,0.0,0.0
1696287399106,0.24023438,-0.034179688,0.96191406,0.1875,0.0,0.0625,0.0,0.0,0.0
1696287399110,0.23730469,-0.034179688,0.9746094,0.375,0.3125,-0.0625,0.0,0.0,0.0
1696287399166,0.234375,-0.034179688,0.96972656,0.0,-0.3125,-0.0625,0.0,0.0,0.0
1696287399195,0.23242188,-0.030273438,0.97265625,0.25,0.125,-0.0625,0.0,0.0,0.0
1696287399226,0.23925781,-0.034179688,0.9736328,-0.0625,-0.0625,0.125,0.0,0.0,0.0
1696287399313,0.23046875,-0.02734375,0.9707031,0.3125,0.4375,0.25,0.0,0.0,0.0
1696287399315,0.24121094,-0.036132812,0.9707031,-0.0625,0.0625,-0.125,0.0,0.0,0.0
1696287399341,0.23828125,-0.028320312,0.9736328,-0.125,0.125,-0.0625,-3.0,-36.125,-161.3125
1696287399405,0.24121094,-0.03125,0.9707031,0.125,0.125,-0.1875,0.0,0.0,0.0
1696287399432,0.2421875,-0.041992188,0.9736328,0.0,0.4375,0.0,0.0,0.0,0.0
1696287399473,0.23925781,-0.029296875,0.96484375,0.375,-0.0625,0.0,0.0,0.0,0.0
1696287399531,0.23828125,-0.030273438,0.9609375,-0.125,0.25,-0.4375,0.0,0.0,0.0
1696287399551,0.234375,-0.033203125,0.96484375,0.1875,0.5,-0.125,0.0,0.0,0.0
1696287399583,0.23535156,-0.029296875,0.9824219,0.0,0.0625,0.1875,0.0,0.0,0.0
1696287399643,0.24316406,-0.036132812,0.9628906,0.0625,0.0,-0.0625,0.0,0.0,0.0
1696287399674,0.24316406,-0.03125,0.9609375,-0.125,0.1875,-0.1875,0.0,0.0,0.0
1696287399700,0.24316406,-0.038085938,0.9892578,0.4375,0.65625,-0.25,0.0,0.0,0.0
1696287399761,0.25097656,-0.040039062,0.9482422,-0.34375,0.0,-0.3125,0.0,0.0,0.0
1696287399793,0.22363281,-0.030273438,0.97558594,0.25,0.375,-0.125,0.0,0.0,0.0
1696287399820,0.23535156,-0.030273438,0.9580078,0.0,0.1875,-0.25,-3.4375,-34.9375,-163.5625
1696287399881,0.23242188,-0.036132812,0.9765625,0.0,0.1875,0.0,0.0,0.0,0.0
1696287399912,0.24414062,-0.025390625,0.97753906,0.0625,0.1875,-0.1875,0.0,0.0,0.0
1696287399941,0.24511719,-0.03125,0.9638672,-0.34375,0.0,-0.0625,0.0,0.0,0.0
1696287400006,0.23925781,-0.040039062,0.96777344,0.125,0.25,-0.0625,0.0,0.0,0.0
1696287400033,0.23339844,-0.040039062,0.9746094,-0.0625,0.0,0.1875,0.0,0.0,0.0
1696287400065,0.23632812,-0.030273438,0.96777344,0.375,0.1875,0.0,0.0,0.0,0.0
1696287400126,0.23046875,-0.041992188,0.96972656,0.1875,0.125,-0.0625,0.0,0.0,0.0
1696287400153,0.23925781,-0.03125,0.96875,0.125,0.0,0.0,0.0,0.0,0.0
1696287400181,0.23925781,-0.036132812,0.97753906,-0.0625,0.0625,-0.1875,0.0,0.0,0.0
1696287400242,0.23828125,-0.03515625,0.9580078,-0.1875,-0.125,0.0,0.0,0.0,0.0
1696287400271,0.25097656,-0.038085938,0.96972656,0.125,-0.0625,0.1875,0.0,0.0,0.0
1696287400301,0.234375,-0.029296875,0.96875,0.25,0.3125,0.0,0.0,0.0,0.0
1696287400366,0.23730469,-0.029296875,0.9638672,-0.0625,0.25,-0.1875,-3.4375,-36.6875,-164.875
1696287400394,0.23730469,-0.03125,0.96777344,-0.125,0.0,-0.375,0.0,0.0,0.0
1696287400423,0.24121094,-0.029296875,0.9667969,0.1875,-0.125,0.0625,0.0,0.0,0.0
1696287400484,0.24121094,-0.025390625,0.98046875,0.0,-0.25,0.125,0.0,0.0,0.0
1696287400513,0.23632812,-0.028320312,0.9716797,0.0,-0.0625,0.0625,0.0,0.0,0.0
1696287400545,0.23144531,-0.037109375,0.9667969,-0.21875,0.0,0.0,0.0,0.0,0.0
1696287400605,0.23535156,-0.03125,0.96777344,0.125,-0.3125,0.125,0.0,0.0,0.0
1696287400632,0.23046875,-0.020507812,0.98046875,0.0,-0.0625,-0.0625,0.0,0.0,0.0
1696287400664,0.2421875,-0.02734375,0.98339844,0.25,0.125,-0.1875,0.0,0.0,0.0
1696287400821,0.24804688,-0.03515625,0.9707031,-0.0625,-0.25,-0.0625,0.0,0.0,0.0
1696287400822,0.24511719,-0.041015625,0.9667969,0.0,-0.3125,0.3125,0.0,0.0,0.0
1696287400825,0.23046875,-0.038085938,0.9658203,-0.125,-0.125,0.0625,0.0,0.0,0.0
1696287400839,0.24511719,-0.037109375,0.95703125,-0.0625,-0.4375,0.0,-4.375,-35.8125,-162.375
1696287400873,0.22949219,-0.03125,0.98046875,0.4375,0.1875,0.0,0.0,0.0,0.0
1696287400901,0.23535156,-0.02734375,0.9628906,-0.34375,-0.4375,-0.1875,0.0,0.0,0.0
1696287400964,0.24609375,-0.03125,0.98339844,0.375,0.0625,0.0625,0.0,0.0,0.0
1696287400991,0.23535156,-0.036132812,0.9560547,-0.59375,-0.78125,0.1875,0.0,0.0,0.0
1696287401025,0.2265625,-0.02734375,0.97265625,0.4375,-0.1875,0.4375,0.0,0.0,0.0
1696287401116,0.23828125,-0.029296875,0.9609375,-0.46875,-0.25,-0.0625,0.0,0.0,0.0
1696287401118,0.23925781,-0.02734375,0.9658203,0.125,0.25,-0.125,0.0,0.0,0.0
1696287401143,0.23242188,-0.038085938,0.9609375,-0.125,-0.125,-0.0625,0.0,0.0,0.0
1696287401207,0.24414062,-0.03125,0.9716797,-0.1875,-0.1875,0.0,0.0,0.0,0.0
1696287401233,0.23632812,-0.030273438,0.9628906,0.1875,0.0,0.0,0.0,0.0,0.0
1696287401263,0.23144531,-0.03125,0.9628906,-0.0625,0.0,-0.0625,0.0,0.0,0.0
1696287401386,0.24023438,-0.02734375,0.9628906,0.25,0.25,-0.3125,-4.375,-35.5,-164.0
1696287401388,0.24707031,-0.034179688,0.97558594,-0.21875,-0.3125,-0.3125,0.0,0.0,0.0
1696287401390,0.23925781,-0.028320312,0.9609375,0.1875,0.0,-0.125,0.0,0.0,0.0
1696287401471,0.24511719,-0.03515625,0.9863281,0.0,-0.125,0.1875,0.0,0.0,0.0
1696287401473,0.24316406,-0.03125,0.9746094,0.25,0.0625,-0.0625,0.0,0.0,0.0
1696287401501,0.2421875,-0.036132812,0.984375,0.125,-0.0625,-0.0625,0.0,0.0,0.0
1696287401718,0.24121094,-0.024414062,0.96191406,0.0625,0.1875,0.0625,0.0,0.0,0.0
1696287401721,0.24609375,-0.033203125,0.9746094,-0.0625,-0.0625,-0.0625,0.0,0.0,0.0
1696287401723,0.24511719,-0.02734375,0.9609375,-0.125,-0.0625,0.125,0.0,0.0,0.0
1696287401724,0.2421875,-0.03125,0.94921875,0.25,0.25,0.0,0.0,0.0,0.0
1696287401726,0.23535156,-0.03125,0.96484375,-0.34375,-0.0625,-0.125,0.0,0.0,0.0
1696287401741,0.23242188,-0.028320312,0.97265625,0.0,-0.0625,0.0625,0.0,0.0,0.0
1696287401803,0.24023438,-0.03515625,0.97753906,-0.1875,0.0,0.0,0.0,0.0,0.0
1696287401837,0.23632812,-0.029296875,0.9667969,0.3125,0.25,0.125,-3.75,-35.8125,-163.6875
1696287401863,0.24316406,-0.024414062,0.9609375,0.125,-0.0625,0.0625,0.0,0.0,0.0
1696287401927,0.23535156,-0.038085938,0.9580078,0.0625,-0.125,-0.125,0.0,0.0,0.0
1696287401954,0.2421875,-0.029296875,0.9609375,0.25,0.0,-0.0625,0.0,0.0,0.0
1696287401985,0.24414062,-0.02734375,0.96777344,-0.1875,0.0,0.0,0.0,0.0,0.0
1696287402046,0.23632812,-0.026367188,0.9765625,0.3125,0.5,0.0625,0.0,0.0,0.0
1696287402074,0.234375,-0.033203125,0.9707031,-0.0625,-0.375,-0.125,0.0,0.0,0.0
1696287402105,0.234375,-0.034179688,0.9746094,-0.53125,0.0,-0.3125,0.0,0.0,0.0
1696287402165,0.234375,-0.03515625,0.9716797,0.125,-0.0625,0.25,0.0,0.0,0.0
1696287402196,0.23339844,-0.028320312,0.97753906,-0.21875,-0.125,0.0625,0.0,0.0,0.0
1696287402224,0.24121094,-0.029296875,0.9707031,0.0625,0.25,-0.1875,0.0,0.0,0.0
1696287402285,0.23339844,-0.034179688,0.9658203,-0.28125,0.0625,-0.1875,0.0,0.0,0.0
1696287402313,0.234375,-0.037109375,0.9707031,0.3125,0.0,0.125,0.0,0.0,0.0
1696287402340,0.23730469,-0.036132812,0.9638672,0.0,-0.0625,0.0625,-3.75,-35.5,-164.0
1696287402404,0.24023438,-0.032226562,0.9736328,0.0,-0.125,-0.125,0.0,0.0,0.0
1696287402430,0.23535156,-0.02734375,0.9824219,-0.0625,0.0,-0.1875,0.0,0.0,0.0
1696287402461,0.234375,-0.03125,0.9580078,0.0,-0.1875,-0.125,0.0,0.0,0.0
1696287402616,0.23925781,-0.030273438,0.97753906,0.0625,-0.1875,0.0,0.0,0.0,0.0
1696287402619,0.23925781,-0.026367188,0.95703125,-0.21875,-0.1875,-0.125,0.0,0.0,0.0
1696287402620,0.23730469,-0.025390625,0.98339844,0.125,0.25,0.1875,0.0,0.0,0.0
1696287402621,0.23925781,-0.036132812,0.9638672,-0.21875,-0.3125,0.0625,0.0,0.0,0.0
1696287402704,0.2421875,-0.032226562,0.9667969,0.375,0.25,0.0,0.0,0.0,0.0
1696287402706,0.23632812,-0.029296875,0.96875,-0.1875,0.125,-0.125,0.0,0.0,0.0
1696287402761,0.23046875,-0.030273438,0.9628906,0.125,0.1875,-0.0625,0.0,0.0,0.0
1696287402791,0.24414062,-0.026367188,0.96484375,-0.125,-0.125,0.0625,0.0,0.0,0.0
1696287402822,0.23925781,-0.03515625,0.9609375,0.0,-0.0625,0.0,-2.875,-35.9375,-163.5625
1696287402891,0.23339844,-0.036132812,0.96972656,0.0,-0.1875,0.0625,0.0,0.0,0.0
1696287402913,0.22949219,-0.029296875,0.97753906,0.0,0.0,-0.0625,0.0,0.0,0.0
1696287402941,0.23828125,-0.034179688,0.9609375,0.0625,-0.25,0.0625,0.0,0.0,0.0
1696287403066,0.234375,-0.036132812,0.97558594,-0.1875,-0.1875,-0.125,0.0,0.0,0.0
1696287403071,0.24121094,-0.032226562,0.953125,0.4375,0.25,0.0,0.0,0.0,0.0
1696287403074,0.24414062,-0.024414062,0.9658203,-0.46875,-0.1875,-0.125,0.0,0.0,0.0
1696287403124,0.2421875,-0.022460938,0.96777344,0.6875,0.0,0.0625,0.0,0.0,0.0
1696287403152,0.234375,-0.040039062,0.9628906,-0.71875,-0.125,0.0,0.0,0.0,0.0
1696287403186,0.23925781,-0.033203125,0.9628906,0.6875,0.3125,-0.0625,0.0,0.0,0.0
1696287403211,0.25683594,-0.01953125,0.97558594,-0.28125,-0.0625,-0.3125,0.0,0.0,0.0
1696287403275,0.23242188,-0.029296875,0.9658203,0.3125,0.5,-0.125,0.0,0.0,0.0
1696287403304,0.23632812,-0.030273438,0.9482422,0.125,-0.0625,0.0,0.0,0.0,0.0
1696287403362,0.24121094,-0.03125,0.96777344,0.0625,0.125,-0.0625,-4.9375,-36.4375,-163.875
1696287403393,0.23828125,-0.036132812,0.98535156,0.1875,0.125,0.0,0.0,0.0,0.0
1696287403422,0.23535156,-0.036132812,0.9580078,-0.21875,0.3125,-0.25,0.0,0.0,0.0
1696287403453,0.2421875,-0.028320312,0.96875,0.0,0.0,-0.0625,0.0,0.0,0.0
1696287403521,0.24511719,-0.026367188,0.9707031,0.25,0.0625,0.0625,0.0,0.0,0.0
1696287403542,0.24121094,-0.03515625,0.9638672,0.0625,0.1875,-0.125,0.0,0.0,0.0
1696287403576,0.23632812,-0.038085938,0.96484375,0.09375,0.21875,-0.03125,0.0,0.0,0.0
1696287403666,0.22753906,-0.02734375,0.96777344,0.375,0.5625,-0.09375,0.0,0.0,0.0
1696287403670,0.23535156,-0.02734375,0.9736328,-0.46875,-0.28125,-0.21875,0.0,0.0,0.0
1696287403693,0.24023438,-0.043945312,0.96191406,0.3125,0.09375,-0.03125,0.0,0.0,0.0
1696287403756,0.23632812,-0.030273438,0.9716797,-0.03125,-0.15625,0.15625,0.0,0.0,0.0
1696287403783,0.23535156,-0.029296875,0.96484375,0.4375,-0.03125,0.21875,0.0,0.0,0.0
1696287403843,0.2421875,-0.029296875,0.9765625,-0.03125,0.09375,-0.21875,-5.125,-35.5,-164.0
1696287403873,0.23828125,-0.02734375,0.96484375,-0.09375,0.09375,-0.28125,0.0,0.0,0.0
1696287403902,0.23632812,-0.03515625,0.96777344,0.03125,0.15625,-0.03125,0.0,0.0,0.0
1696287403931,0.23828125,-0.022460938,0.96484375,-0.09375,-0.03125,0.03125,0.0,0.0,0.0
1696287404057,0.2421875,-0.036132812,0.97265625,-0.15625,0.40625,-0.03125,0.0,0.0,0.0
1696287404059,0.24023438,-0.041015625,0.9736328,0.09375,0.15625,-0.09375,0.0,0.0,0.0
1696287404061,0.24902344,-0.025390625,0.97265625,-0.03125,0.09375,-0.03125,0.0,0.0,0.0
1696287404110,0.23339844,-0.03125,0.96777344,0.03125,0.09375,-0.03125,0.0,0.0,0.0
1696287404141,0.234375,-0.03515625,0.95996094,0.09375,0.15625,-0.09375,0.0,0.0,0.0
1696287404175,0.2421875,-0.028320312,0.96972656,0.03125,-0.03125,-0.09375,0.0,0.0,0.0
1696287404233,0.23535156,-0.032226562,0.96777344,-0.28125,-0.03125,-0.03125,0.0,0.0,0.0
1696287404261,0.23144531,-0.03515625,0.9560547,0.21875,0.28125,0.09375,0.0,0.0,0.0
1696287404292,0.24316406,-0.026367188,0.98046875,-0.46875,-0.09375,0.15625,0.0,0.0,0.0
1696287404352,0.23046875,-0.034179688,0.9746094,0.3125,0.5,0.15625,-3.3125,-34.3125,-164.75
1696287404382,0.23632812,-0.03515625,0.95703125,-0.28125,0.15625,-0.03125,0.0,0.0,0.0
1696287404413,0.2265625,-0.026367188,0.9921875,0.25,0.28125,-0.21875,0.0,0.0,0.0
1696287404475,0.23339844,-0.030273438,0.96972656,-0.15625,0.03125,-0.28125,0.0,0.0,0.0
1696287404501,0.24414062,-0.0234375,0.9609375,-0.34375,-0.28125,-0.09375,0.0,0.0,0.0
1696287404533,0.23535156,-0.038085938,0.9794922,0.09375,0.03125,0.28125,0.0,0.0,0.0
1696287404593,0.23828125,-0.038085938,0.96972656,-0.15625,0.09375,0.15625,0.0,0.0,0.0
1696287404622,0.22753906,-0.03125,0.9658203,0.15625,0.09375,0.21875,0.0,0.0,0.0
1696287404653,0.234375,-0.04296875,0.9736328,0.15625,-0.03125,-0.09375,0.0,0.0,0.0
1696287404714,0.23828125,-0.030273438,0.9716797,0.09375,0.09375,-0.28125,0.0,0.0,0.0
1696287404743,0.22558594,-0.026367188,0.953125,0.09375,0.21875,-0.40625,0.0,0.0,0.0
1696287404774,0.23925781,-0.022460938,0.9765625,-0.03125,-0.15625,0.03125,0.0,0.0,0.0
1696287404835,0.22949219,-0.03515625,0.9658203,-0.03125,-0.03125,0.21875,-4.375,-35.5,-164.4375
1696287404865,0.23535156,-0.029296875,0.9785156,-0.28125,-0.09375,0.15625,0.0,0.0,0.0
1696287404892,0.23632812,-0.030273438,0.9716797,0.5,0.34375,0.21875,0.0,0.0,0.0
1696287404954,0.24121094,-0.029296875,0.97753906,-0.53125,-0.03125,-0.28125,0.0,0.0,0.0
1696287404982,0.22753906,-0.032226562,0.9628906,0.03125,-0.09375,-0.28125,0.0,0.0,0.0
1696287405012,0.24023438,-0.03125,0.9716797,0.03125,0.03125,-0.15625,0.0,0.0,0.0
1696287405076,0.24121094,-0.03125,0.9765625,0.09375,-0.53125,0.21875,0.0,0.0,0.0
1696287405108,0.23242188,-0.033203125,0.97753906,-0.15625,-0.03125,0.15625,0.0,0.0,0.0
1696287405133,0.22851562,-0.037109375,0.9609375,-0.03125,-0.09375,0.09375,0.0,0.0,0.0
1696287405193,0.22851562,-0.033203125,0.9658203,-0.28125,-0.09375,0.03125,0.0,0.0,0.0
1696287405222,0.234375,-0.033203125,0.9580078,0.09375,-0.21875,-0.09375,0.0,0.0,0.0
1696287405255,0.234375,-0.034179688,0.9667969,-0.03125,-0.15625,-0.03125,0.0,0.0,0.0
1696287405315,0.24609375,-0.021484375,0.98535156,-0.09375,-0.34375,0.03125,0.0,0.0,0.0
1696287405344,0.2421875,-0.032226562,0.96777344,-0.21875,-0.15625,0.09375,-3.3125,-35.5,-163.375
1696287405373,0.23242188,-0.025390625,0.9550781,-0.21875,-0.28125,0.40625,0.0,0.0,0.0
1696287405498,0.23730469,-0.029296875,0.9746094,-0.21875,-0.09375,0.28125,0.0,0.0,0.0
1696287405524,0.23730469,-0.03515625,0.96777344,0.6875,0.15625,-0.03125,0.0,0.0,0.0
1696287405528,0.24804688,-0.026367188,0.9658203,-0.15625,-0.53125,-0.09375,0.0,0.0,0.0
1696287405551,0.23925781,-0.02734375,0.95703125,0.3125,-0.03125,-0.15625,0.0,0.0,0.0
1696287405583,0.23535156,-0.038085938,0.96191406,-0.09375,-0.09375,-0.28125,0.0,0.0,0.0
1696287405612,0.24804688,-0.030273438,0.95996094,0.15625,0.09375,0.21875,0.0,0.0,0.0
1696287405675,0.234375,-0.025390625,0.9746094,0.03125,0.15625,0.09375,0.0,0.0,0.0
1696287405705,0.234375,-0.03125,0.95703125,-0.46875,-0.09375,-0.15625,0.0,0.0,0.0
1696287405731,0.22949219,-0.032226562,0.96972656,0.03125,-0.21875,0.09375,0.0,0.0,0.0
1696287405801,0.24316406,-0.032226562,0.98339844,-0.34375,-0.21875,-0.03125,0.0,0.0,0.0
1696287405823,0.23925781,-0.03515625,0.9707031,0.3125,0.03125,0.09375,-4.625,-36.6875,-163.875
1696287405855,0.24414062,-0.030273438,0.96777344,-0.28125,-0.03125,-0.15625,0.0,0.0,0.0
1696287405944,0.24023438,-0.026367188,0.9736328,0.03125,-0.09375,-0.03125,0.0,0.0,0.0
1696287405946,0.23828125,-0.026367188,0.9785156,-0.03125,-0.21875,-0.03125,0.0,0.0,0.0
1696287405972,0.24121094,-0.029296875,0.96484375,0.15625,0.03125,0.15625,0.0,0.0,0.0
1696287406034,0.23046875,-0.034179688,0.9658203,0.4375,0.15625,0.15625,0.0,0.0,0.0
1696287406061,0.23632812,-0.036132812,0.96972656,0.09375,-0.21875,-0.09375,0.0,0.0,0.0
1696287406093,0.234375,-0.034179688,0.96484375,-0.34375,-0.09375,-0.28125,0.0,0.0,0.0
1696287406150,0.23828125,-0.025390625,0.9667969,0.03125,-0.34375,0.09375,0.0,0.0,0.0
1696287406182,0.24023438,-0.029296875,0.9707031,0.03125,0.03125,0.28125,0.0,0.0,0.0
1696287406210,0.23339844,-0.025390625,0.9736328,-0.28125,0.21875,0.09375,0.0,0.0,0.0
1696287406274,0.2265625,-0.038085938,0.97558594,-0.40625,-0.46875,-0.09375,0.0,0.0,0.0
1696287406301,0.24414062,-0.037109375,0.9707031,0.09375,0.03125,0.03125,0.0,0.0,0.0
1696287406332,0.23925781,-0.034179688,0.9609375,-0.09375,-0.28125,0.21875,-4.1875,-34.9375,-161.125
1696287406424,0.24023438,-0.020507812,0.96972656,0.25,-0.03125,0.09375,0.0,0.0,0.0
1696287406426,0.23632812,-0.030273438,0.9658203,-0.03125,0.21875,-0.28125,0.0,0.0,0.0
1696287406453,0.23828125,-0.0234375,0.96777344,-0.09375,-0.21875,-0.09375,0.0,0.0,0.0
1696287406571,0.23632812,-0.022460938,0.9707031,0.09375,0.03125,0.03125,0.0,0.0,0.0
1696287406573,0.23046875,-0.029296875,0.96777344,-0.03125,-0.03125,0.21875,0.0,0.0,0.0
1696287406574,0.23828125,-0.02734375,0.97558594,-0.15625,0.15625,-0.09375,0.0,0.0,0.0
1696287406632,0.23535156,-0.040039062,0.96191406,0.15625,-0.40625,-0.09375,0.0,0.0,0.0
1696287406665,0.24511719,-0.029296875,0.9765625,-0.03125,0.28125,0.03125,0.0,0.0,0.0
1696287406694,0.24804688,-0.022460938,0.9560547,-0.15625,-0.34375,-0.21875,0.0,0.0,0.0
1696287406756,0.2265625,-0.037109375,0.97753906,0.15625,0.40625,0.21875,0.0,0.0,0.0
1696287406783,0.24707031,-0.0234375,0.9707031,-0.53125,-0.15625,0.21875,0.0,0.0,0.0
1696287406812,0.23535156,-0.037109375,0.9658203,0.15625,-0.15625,0.03125,-2.875,-35.1875,-162.8125
1696287406873,0.22949219,-0.034179688,0.9550781,-0.21875,0.03125,-0.03125,0.0,0.0,0.0
1696287406903,0.2421875,-0.04296875,0.96875,0.3125,0.03125,0.21875,0.0,0.0,0.0
1696287406934,0.23535156,-0.03125,0.96191406,0.03125,0.15625,-0.03125,0.0,0.0,0.0
1696287407057,0.25,-0.03125,0.9716797,-0.15625,-0.28125,-0.09375,0.0,0.0,0.0
1696287407059,0.2421875,-0.036132812,0.9628906,0.03125,0.09375,-0.09375,0.0,0.0,0.0
1696287407061,0.23632812,-0.026367188,0.97265625,-0.40625,-0.46875,0.09375,0.0,0.0,0.0
1696287407112,0.22949219,-0.038085938,0.9814453,0.3125,0.09375,0.15625,0.0,0.0,0.0
1696287407143,0.24902344,-0.028320312,0.9667969,-0.28125,0.03125,0.09375,0.0,0.0,0.0
1696287407174,0.234375,-0.038085938,0.9707031,0.5,0.21875,-0.09375,0.0,0.0,0.0
1696287407234,0.24609375,-0.037109375,0.9589844,0.15625,0.03125,-0.21875,0.0,0.0,0.0
1696287407263,0.23828125,-0.02734375,0.96972656,-0.21875,-0.03125,-0.15625,0.0,0.0,0.0
1696287407294,0.24316406,-0.028320312,0.96777344,0.25,0.09375,0.03125,0.0,0.0,0.0
1696287407354,0.23535156,-0.03125,0.96191406,-0.40625,-0.40625,-0.03125,-5.125,-36.5625,-163.375
1696287407384,0.23535156,-0.030273438,0.97753906,0.3125,0.34375,0.09375,0.0,0.0,0.0
1696287407413,0.23828125,-0.034179688,0.9746094,-0.59375,-0.03125,-0.15625,0.0,0.0,0.0
1696287407471,0.23632812,-0.025390625,0.9824219,0.21875,0.21875,0.09375,0.0,0.0,0.0
1696287407503,0.23535156,-0.032226562,0.9814453,0.03125,0.03125,-0.0625,0.0,0.0,0.0
1696287407533,0.24023438,-0.034179688,0.9667969,0.40625,0.09375,-0.0625,0.0,0.0,0.0
1696287407594,0.2421875,-0.030273438,0.96777344,-0.03125,0.21875,-0.15625,0.0,0.0,0.0
1696287407621,0.23046875,-0.021484375,0.9628906,0.09375,0.03125,-0.15625,0.0,0.0,0.0
1696287407651,0.24023438,-0.026367188,0.9638672,-0.40625,-0.25,-0.0625,0.0,0.0,0.0
1696287407713,0.22558594,-0.028320312,0.9736328,0.21875,0.15625,0.25,0.0,0.0,0.0
1696287407743,0.24023438,-0.0390625,0.9667969,0.03125,0.03125,0.125,0.0,0.0,0.0
1696287407773,0.22753906,-0.025390625,0.9716797,0.875,0.65625,-0.09375,0.0,0.0,0.0
1696287407836,0.23339844,-0.03125,0.9580078,-0.21875,0.21875,-0.28125,-4.0625,-35.5,-164.0
1696287407862,0.22949219,-0.024414062,0.9589844,0.21875,0.21875,-0.53125,0.0,0.0,0.0
1696287407892,0.23144531,-0.033203125,0.96777344,0.03125,0.21875,-0.09375,0.0,0.0,0.0
1696287407957,0.24414062,-0.029296875,0.95996094,-0.09375,-0.3125,0.1875,0.0,0.0,0.0
1696287407985,0.23339844,-0.036132812,0.97265625,0.40625,0.65625,0.0,0.0,0.0,0.0
1696287408015,0.23046875,-0.033203125,0.95703125,-0.625,-0.09375,-0.15625,0.0,0.0,0.0
1696287408073,0.23535156,-0.030273438,0.9765625,0.40625,0.28125,0.0,0.0,0.0,0.0
1696287408104,0.23925781,-0.034179688,0.96777344,-0.28125,-0.09375,-0.15625,0.0,0.0,0.0
1696287408135,0.23632812,-0.029296875,0.96191406,0.53125,0.09375,-0.0625,0.0,0.0,0.0
1696287408255,0.22753906,-0.030273438,0.9785156,-0.03125,0.03125,-0.0625,0.0,0.0,0.0
1696287408259,0.23828125,-0.026367188,0.96972656,0.09375,0.15625,-0.0625,0.0,0.0,0.0
1696287408261,0.23339844,-0.021484375,0.953125,-0.09375,-0.25,-0.21875,0.0,0.0,0.0
1696287408436,0.23730469,-0.025390625,0.9707031,-0.03125,0.03125,0.0,0.0,0.0,0.0
1696287408442,0.24023438,-0.025390625,0.9716797,0.28125,0.03125,0.125,-3.0,-35.8125,-163.375
1696287408443,0.24023438,-0.03515625,0.9609375,-0.03125,0.15625,-0.0625,0.0,0.0,0.0
1696287408445,0.23828125,-0.033203125,0.96972656,0.15625,0.21875,-0.09375,0.0,0.0,0.0
1696287408459,0.23339844,-0.020507812,0.9609375,-0.40625,0.15625,-0.28125,0.0,0.0,0.0
1696287408491,0.22558594,-0.0234375,0.9667969,0.34375,0.15625,0.125,0.0,0.0,0.0
1696287408555,0.23828125,-0.02734375,0.9667969,-0.21875,-0.15625,0.0625,0.0,0.0,0.0
1696287408585,0.24804688,-0.032226562,0.96777344,-0.03125,-0.09375,0.0,0.0,0.0,0.0
1696287408612,0.22753906,-0.041992188,0.97265625,0.03125,0.09375,-0.09375,0.0,0.0,0.0
1696287408674,0.2265625,-0.025390625,0.9638672,0.15625,0.09375,0.1875,0.0,0.0,0.0
1696287408703,0.23339844,-0.03125,0.96875,0.03125,-0.21875,-0.09375,0.0,0.0,0.0
1696287408731,0.234375,-0.030273438,0.96191406,0.28125,-0.21875,0.0625,0.0,0.0,0.0
1696287408792,0.23632812,-0.022460938,0.96972656,-0.15625,-0.15625,-0.21875,0.0,0.0,0.0
1696287408824,0.22949219,-0.033203125,0.96777344,0.21875,-0.09375,0.125,-3.3125,-36.5625,-161.625
1696287408852,0.23144531,-0.037109375,0.9628906,-0.21875,-0.09375,0.0,0.0,0.0,0.0
1696287408947,0.24023438,-0.029296875,0.95703125,0.09375,0.03125,-0.0625,0.0,0.0,0.0
1696287408949,0.24121094,-0.02734375,0.97558594,0.09375,0.15625,0.125,0.0,0.0,0.0
1696287408974,0.23925781,-0.033203125,0.9765625,-0.03125,0.15625,-0.28125,0.0,0.0,0.0
1696287409033,0.23242188,-0.032226562,0.96191406,-0.03125,-0.09375,-0.09375,0.0,0.0,0.0
1696287409063,0.23535156,-0.038085938,0.9716797,-0.03125,-0.21875,0.0,0.0,0.0,0.0
1696287409093,0.23144531,-0.034179688,0.9482422,-0.15625,-0.09375,0.0625,0.0,0.0,0.0
1696287409154,0.234375,-0.03125,0.9658203,-0.03125,-0.15625,0.0,0.0,0.0,0.0
1696287409185,0.23828125,-0.034179688,0.96191406,-0.46875,-0.09375,0.125,0.0,0.0,0.0
1696287409214,0.234375,-0.02734375,0.9628906,0.40625,0.03125,-0.0625,0.0,0.0,0.0
1696287409275,0.23730469,-0.038085938,0.97265625,-0.09375,-0.15625,0.125,0.0,0.0,0.0
1696287409304,0.23144531,-0.032226562,0.96777344,-0.09375,-0.5,-0.0625,0.0,0.0,0.0
1696287409330,0.23535156,-0.037109375,0.9765625,0.03125,-0.15625,0.0,-3.3125,-35.5,-163.375
1696287409390,0.24414062,-0.026367188,0.9550781,-0.09375,-0.03125,-0.0625,0.0,0.0,0.0
1696287409424,0.23925781,-0.018554688,0.9707031,-0.21875,-0.15625,0.125,0.0,0.0,0.0
1696287409451,0.23828125,-0.032226562,0.97558594,0.15625,-0.15625,-0.09375,0.0,0.0,0.0
1696287409512,0.25585938,-0.03515625,0.9658203,-0.21875,-0.3125,0.0625,0.0,0.0,0.0
1696287409544,0.24316406,-0.038085938,0.9667969,0.34375,0.40625,0.125,0.0,0.0,0.0
1696287409572,0.23828125,-0.040039062,0.95214844,-0.03125,-0.25,-0.15625,0.0,0.0,0.0
1696287409634,0.2421875,-0.029296875,0.9667969,0.15625,0.21875,-0.28125,0.0,0.0,0.0
1696287409665,0.24511719,-0.01953125,0.9550781,-0.21875,-0.09375,0.0,0.0,0.0,0.0
1696287409690,0.24804688,-0.0234375,0.9765625,0.15625,-0.09375,0.125,0.0,0.0,0.0
1696287409817,0.22949219,-0.026367188,0.96972656,-0.21875,0.34375,0.0,0.0,0.0,0.0
1696287409819,0.24121094,-0.032226562,0.95703125,-0.09375,0.03125,-0.09375,0.0,0.0,0.0
1696287409821,0.234375,-0.03125,0.9658203,0.28125,-0.09375,0.0625,-4.625,-34.1875,-162.8125
1696287409903,0.23144531,-0.029296875,0.9658203,-0.28125,-0.15625,-0.0625,0.0,0.0,0.0
1696287409905,0.2265625,-0.03515625,0.98046875,0.59375,0.03125,0.125,0.0,0.0,0.0
1696287409933,0.24023438,-0.032226562,0.96777344,-0.09375,-0.03125,-0.15625,0.0,0.0,0.0
1696287410026,0.24511719,-0.02734375,0.96875,0.03125,0.15625,-0.09375,0.0,0.0,0.0
1696287410031,0.23535156,-0.026367188,0.96484375,-0.34375,-0.375,-0.21875,0.0,0.0,0.0
1696287410052,0.23144531,-0.03125,0.9628906,0.21875,0.21875,0.125,0.0,0.0,0.0
1696287410110,0.24316406,-0.03515625,0.95703125,-0.28125,-0.25,0.125,0.0,0.0,0.0
1696287410155,0.22753906,-0.034179688,0.96484375,0.3125,0.0,0.0,0.0,0.0,0.0
1696287410171,0.23925781,-0.03515625,0.95996094,0.03125,0.125,-0.0625,0.0,0.0,0.0
1696287410238,0.234375,-0.032226562,0.9580078,-0.21875,0.0625,-0.1875,0.0,0.0,0.0
1696287410261,0.24414062,-0.038085938,0.9746094,-0.03125,0.0625,0.0,0.0,0.0,0.0
1696287410293,0.23535156,-0.025390625,0.9550781,-0.03125,-0.1875,0.125,0.0,0.0,0.0
1696287410387,0.23242188,-0.026367188,0.96972656,0.09375,0.125,-0.125,-3.125,-33.5625,-163.875
1696287410391,0.24414062,-0.032226562,0.9658203,-0.34375,0.0,-0.3125,0.0,0.0,0.0
1696287410410,0.234375,-0.029296875,0.96484375,-0.03125,0.0,0.0,0.0,0.0,0.0
1696287410504,0.23535156,-0.02734375,0.98828125,0.03125,-0.0625,0.0625,0.0,0.0,0.0
1696287410507,0.23632812,-0.02734375,0.96191406,-0.09375,0.0,0.0,0.0,0.0,0.0
1696287410531,0.24023438,-0.02734375,0.96484375,0.09375,0.3125,-0.0625,0.0,0.0,0.0
1696287410593,0.24023438,-0.029296875,0.9511719,-0.03125,0.125,-0.125,0.0,0.0,0.0
1696287410623,0.24414062,-0.03515625,0.96484375,-0.09375,-0.34375,0.0,0.0,0.0,0.0
1696287410653,0.23632812,-0.032226562,0.9746094,0.09375,0.25,0.0625,0.0,0.0,0.0
1696287410719,0.24902344,-0.034179688,0.9707031,0.03125,0.125,0.0625,0.0,0.0,0.0
1696287410741,0.23925781,-0.028320312,0.96777344,0.09375,-0.125,-0.3125,0.0,0.0,0.0
1696287410773,0.24023438,-0.030273438,0.94433594,-0.21875,0.0625,-0.0625,0.0,0.0,0.0
1696287410868,0.23730469,-0.034179688,0.97265625,0.15625,0.0625,0.0625,-3.3125,-36.875,-162.0625
1696287410871,0.24316406,-0.026367188,0.97558594,0.03125,0.25,0.0,0.0,0.0,0.0
1696287410893,0.22949219,-0.028320312,0.9609375,-0.21875,-0.1875,0.0625,0.0,0.0,0.0
1696287410952,0.24023438,-0.033203125,0.9589844,0.3125,0.25,-0.1875,0.0,0.0,0.0
1696287410983,0.22949219,-0.026367188,0.9658203,-0.40625,0.0,-0.3125,0.0,0.0,0.0
1696287411013,0.2421875,-0.040039062,0.9794922,0.1875,0.0625,0.0625,0.0,0.0,0.0
1696287411077,0.23925781,-0.028320312,0.95703125,0.03125,-0.1875,0.0,0.0,0.0,0.0
1696287411103,0.234375,-0.034179688,0.96777344,-0.03125,-0.0625,-0.0625,0.0,0.0,0.0
1696287411133,0.24121094,-0.030273438,0.9716797,0.09375,0.5,-0.1875,0.0,0.0,0.0
1696287411193,0.23730469,-0.022460938,0.9609375,-0.34375,-0.21875,-0.0625,0.0,0.0,0.0
1696287411221,0.23828125,-0.028320312,0.9609375,0.3125,0.0625,0.1875,0.0,0.0,0.0
1696287411255,0.24121094,-0.038085938,0.95410156,-0.28125,-0.0625,0.0625,0.0,0.0,0.0
1696287411374,0.24023438,-0.024414062,0.96875,0.15625,0.3125,-0.125,0.0,0.0,0.0
1696287411403,0.24023438,-0.03125,0.96484375,-0.34375,-0.40625,-0.25,-4.8125,-36.5625,-162.375
1696287411430,0.23730469,-0.022460938,0.9716797,0.03125,0.4375,0.0,0.0,0.0,0.0
1696287411432,0.23046875,-0.034179688,0.9628906,-0.03125,-0.28125,0.0,0.0,0.0,0.0
1696287411464,0.24023438,-0.026367188,0.95996094,-0.03125,0.0,0.25,0.0,0.0,0.0
1696287411491,0.23828125,-0.028320312,0.97558594,-0.03125,0.3125,-0.0625,0.0,0.0,0.0
1696287411554,0.234375,-0.034179688,0.9707031,-0.09375,0.0,-0.125,0.0,0.0,0.0
1696287411581,0.23730469,-0.030273438,0.96777344,0.09375,0.125,-0.1875,0.0,0.0,0.0
1696287411614,0.23632812,-0.029296875,0.9736328,-0.03125,0.0,0.0,0.0,0.0,0.0
1696287411701,0.23730469,-0.028320312,0.9863281,0.3125,0.0,0.0,0.0,0.0,0.0
1696287411705,0.24121094,-0.026367188,0.9707031,0.09375,0.1875,-0.0625,0.0,0.0,0.0
1696287411731,0.2421875,-0.029296875,0.9589844,0.03125,0.1875,-0.3125,0.0,0.0,0.0
1696287411760,0.23828125,-0.03515625,0.9707031,0.03125,0.125,-0.0625,0.0,0.0,0.0
1696287411857,0.22558594,-0.03125,0.9667969,-0.28125,-0.0625,-0.1875,0.0,0.0,0.0
1696287411859,0.23339844,-0.029296875,0.9707031,0.03125,-0.125,0.0625,-4.375,-36.125,-162.375
1696287411883,0.24023438,-0.03125,0.9638672,0.25,0.625,0.0625,0.0,0.0,0.0
1696287411945,0.22949219,-0.03125,0.97558594,-0.40625,-0.1875,-0.25,0.0,0.0,0.0
1696287411981,0.23144531,-0.030273438,0.9658203,0.09375,0.375,-0.40625,0.0,0.0,0.0
1696287412000,0.24121094,-0.028320312,0.96484375,-0.40625,-0.0625,-0.125,0.0,0.0,0.0
1696287412062,0.234375,-0.025390625,0.95996094,0.25,0.0625,0.1875,0.0,0.0,0.0
1696287412091,0.23535156,-0.0234375,0.97558594,-0.15625,0.3125,0.0,0.0,0.0,0.0
1696287412122,0.23828125,-0.036132812,0.96777344,0.03125,0.125,-0.25,0.0,0.0,0.0
1696287412184,0.2421875,-0.036132812,0.9580078,-0.03125,0.0,0.0,0.0,0.0,0.0
1696287412213,0.23632812,-0.029296875,0.9667969,-0.03125,0.0,-0.0625,0.0,0.0,0.0
1696287412242,0.23925781,-0.029296875,0.98535156,0.03125,0.25,0.0,0.0,0.0,0.0
1696287412305,0.23925781,-0.026367188,0.9765625,0.09375,0.25,0.125,0.0,0.0,0.0
1696287412333,0.234375,-0.026367188,0.97265625,0.03125,0.1875,-0.0625,-3.125,-34.9375,-163.5625
1696287412361,0.23339844,-0.029296875,0.9628906,-0.28125,-0.28125,0.0,0.0,0.0,0.0
1696287412424,0.23828125,-0.032226562,0.96972656,-0.09375,0.0,0.0625,0.0,0.0,0.0
1696287412451,0.24023438,-0.034179688,0.9814453,0.1875,0.3125,0.25,0.0,0.0,0.0
1696287412483,0.23144531,-0.037109375,0.9628906,-0.21875,-0.0625,-0.125,0.0,0.0,0.0
1696287412545,0.23535156,-0.03515625,0.96972656,0.15625,0.125,-0.125,0.0,0.0,0.0
1696287412572,0.23925781,-0.0234375,0.9716797,-0.03125,0.0625,-0.3125,0.0,0.0,0.0
1696287412606,0.22949219,-0.026367188,0.96972656,0.15625,0.25,-0.0625,0.0,0.0,0.0
1696287412675,0.23925781,-0.02734375,0.97753906,-0.28125,0.0,0.0625,0.0,0.0,0.0
1696287412691,0.23535156,-0.032226562,0.9667969,-0.09375,0.1875,-0.0625,0.0,0.0,0.0
1696287412719,0.2421875,-0.038085938,0.9658203,-0.15625,-0.0625,0.125,0.0,0.0,0.0
1696287412785,0.23535156,-0.032226562,0.9628906,0.15625,0.25,0.0,0.0,0.0,0.0
1696287412812,0.23535156,-0.030273438,0.96972656,-0.03125,-0.0625,-0.125,0.0,0.0,0.0
1696287412845,0.24023438,-0.0146484375,0.96777344,0.1875,0.25,-0.3125,-4.625,-35.1875,-163.25
1696287412904,0.24023438,-0.028320312,0.9707031,0.3125,0.4375,-0.3125,0.0,0.0,0.0
1696287412932,0.2421875,-0.029296875,0.9765625,-0.28125,-0.0625,0.0,0.0,0.0,0.0
1696287412964,0.24023438,-0.029296875,0.96484375,0.03125,0.0625,-0.0625,0.0,0.0,0.0
1696287413026,0.23828125,-0.02734375,0.97753906,0.1875,-0.1875,0.25,0.0,0.0,0.0
1696287413053,0.23632812,-0.024414062,0.9707031,-0.21875,0.1875,0.0,0.0,0.0,0.0
1696287413083,0.23339844,-0.034179688,0.98046875,0.1875,0.0625,-0.25,0.0,0.0,0.0
1696287413142,0.22558594,-0.030273438,0.9550781,-0.34375,-0.125,-0.25,0.0,0.0,0.0
1696287413173,0.23046875,-0.018554688,0.97265625,-0.09375,-0.28125,0.0625,0.0,0.0,0.0
1696287413205,0.2421875,-0.030273438,0.9638672,-0.09375,-0.40625,0.3125,0.0,0.0,0.0
1696287413264,0.234375,-0.030273438,0.9472656,-0.15625,0.0,-0.0625,0.0,0.0,0.0
1696287413294,0.24023438,-0.02734375,0.984375,-0.09375,0.0,-0.0625,0.0,0.0,0.0
1696287413322,0.23339844,-0.03125,0.96484375,0.03125,0.0625,0.0625,-3.3125,-35.5,-163.375
1696287413386,0.22949219,-0.025390625,0.97265625,-0.03125,-0.28125,0.125,0.0,0.0,0.0
1696287413414,0.24121094,-0.0234375,0.9667969,-0.15625,-0.28125,-0.0625,0.0,0.0,0.0
1696287413444,0.23046875,-0.022460938,0.9628906,0.25,0.0625,0.125,0.0,0.0,0.0
1696287413502,0.23046875,-0.01953125,0.96484375,-0.21875,-0.28125,-0.34375,0.0,0.0,0.0
1696287413534,0.22558594,-0.026367188,0.96972656,0.15625,-0.28125,-0.0625,0.0,0.0,0.0
1696287413561,0.24121094,-0.026367188,0.9736328,0.03125,0.0625,0.125,0.0,0.0,0.0
1696287413744,0.23535156,-0.034179688,0.9609375,0.25,0.3125,0.1875,0.0,0.0,0.0
1696287413747,0.24023438,-0.030273438,0.97265625,-0.03125,-0.0625,-0.1875,0.0,0.0,0.0
1696287413750,0.22167969,-0.029296875,0.9658203,-0.15625,0.0625,-0.1875,0.0,0.0,0.0
1696287413753,0.23339844,-0.02734375,0.9765625,0.03125,0.1875,0.0,0.0,0.0,0.0
1696287413770,0.24316406,-0.029296875,0.9580078,-0.03125,-0.0625,0.1875,0.0,0.0,0.0
1696287413799,0.23242188,-0.030273438,0.9628906,0.03125,0.1875,-0.0625,0.0,0.0,0.0
1696287413862,0.23339844,-0.033203125,0.97753906,-0.15625,-0.21875,-0.3125,-3.3125,-35.5,-163.6875
1696287413892,0.24023438,-0.022460938,0.97558594,-0.03125,-0.0625,-0.1875,0.0,0.0,0.0
1696287413922,0.234375,-0.030273438,0.96972656,0.03125,-0.0625,0.0625,0.0,0.0,0.0
1696287413984,0.234375,-0.0234375,0.98339844,0.03125,0.3125,0.0625,0.0,0.0,0.0
1696287414014,0.23144531,-0.0234375,0.97265625,0.03125,0.25,0.0,0.0,0.0,0.0
1696287414044,0.23144531,-0.029296875,0.95410156,-0.09375,0.0625,-0.09375,0.0,0.0,0.0
1696287414100,0.24023438,-0.029296875,0.953125,0.21875,-0.0625,0.21875,0.0,0.0,0.0
1696287414133,0.24023438,-0.025390625,0.9824219,-0.15625,-0.125,0.15625,0.0,0.0,0.0
1696287414163,0.23242188,-0.020507812,0.97753906,0.5,0.3125,-0.03125,0.0,0.0,0.0
1696287414223,0.25,-0.02734375,0.96777344,-0.21875,-0.3125,-0.28125,0.0,0.0,0.0
1696287414252,0.23535156,-0.025390625,0.9609375,-0.21875,0.0,-0.21875,0.0,0.0,0.0
1696287414284,0.23632812,-0.022460938,0.96191406,0.09375,0.125,-0.09375,0.0,0.0,0.0
1696287414343,0.23828125,-0.028320312,0.9716797,-0.15625,-0.0625,0.03125,-4.375,-35.8125,-163.375
1696287414373,0.24023438,-0.033203125,0.9658203,0.21875,0.3125,0.09375,0.0,0.0,0.0
1696287414402,0.234375,-0.03515625,0.96777344,-0.46875,-0.0625,-0.09375,0.0,0.0,0.0
1696287414524,0.23925781,-0.040039062,0.9667969,0.15625,-0.125,0.03125,0.0,0.0,0.0
1696287414527,0.24804688,-0.030273438,0.96191406,-0.15625,0.0625,-0.03125,0.0,0.0,0.0
1696287414528,0.24023438,-0.038085938,0.9609375,0.15625,-0.125,-0.03125,0.0,0.0,0.0
1696287414583,0.23632812,-0.0234375,0.96875,0.21875,0.25,-0.03125,0.0,0.0,0.0
1696287414611,0.2421875,-0.02734375,0.98046875,-0.15625,-0.1875,-0.21875,0.0,0.0,0.0
1696287414642,0.24511719,-0.034179688,0.9794922,-0.03125,-0.125,0.09375,0.0,0.0,0.0
1696287414709,0.2529297,-0.02734375,0.95703125,-0.15625,0.0625,0.21875,0.0,0.0,0.0
1696287414734,0.234375,-0.028320312,0.9716797,0.03125,0.125,0.28125,0.0,0.0,0.0
1696287414762,0.2529297,-0.034179688,0.97265625,-0.09375,-0.1875,-0.28125,0.0,0.0,0.0
1696287414826,0.23242188,-0.03125,0.9707031,-0.21875,0.0,-0.28125,0.0,0.0,0.0
1696287414859,0.23535156,-0.025390625,0.9716797,0.21875,0.0625,0.03125,-3.3125,-34.3125,-162.375
1696287414881,0.24316406,-0.028320312,0.9746094,-0.21875,-0.1875,0.15625,0.0,0.0,0.0
1696287414944,0.23046875,-0.029296875,0.97558594,0.15625,0.375,-0.09375,0.0,0.0,0.0
1696287414971,0.24121094,-0.030273438,0.9707031,-0.59375,-0.1875,-0.28125,0.0,0.0,0.0
1696287415002,0.23925781,-0.036132812,0.9707031,0.21875,-0.0625,-0.03125,0.0,0.0,0.0
1696287415063,0.2421875,-0.026367188,0.953125,-0.03125,-0.125,0.15625,0.0,0.0,0.0
1696287415090,0.23339844,-0.028320312,0.96191406,0.03125,0.0,0.09375,0.0,0.0,0.0
1696287415122,0.24121094,-0.026367188,0.96191406,0.09375,0.53125,-0.15625,0.0,0.0,0.0
1696287415184,0.22753906,-0.038085938,0.97558594,-0.03125,0.1875,-0.09375,0.0,0.0,0.0
1696287415211,0.23730469,-0.022460938,0.96972656,-0.03125,0.0,0.03125,0.0,0.0,0.0
1696287415242,0.23535156,-0.036132812,0.9716797,-0.03125,-0.125,0.09375,0.0,0.0,0.0
1696287415305,0.24023438,-0.02734375,0.9824219,0.21875,0.53125,-0.03125,0.0,0.0,0.0
1696287415331,0.24121094,-0.036132812,0.96484375,0.03125,0.1875,-0.21875,-3.125,-34.9375,-163.25
1696287415373,0.24609375,-0.024414062,0.9716797,0.09375,0.375,-0.15625,0.0,0.0,0.0
1696287415425,0.23925781,-0.029296875,0.9550781,-0.09375,0.0,-0.15625,0.0,0.0,0.0
1696287415455,0.23144531,-0.026367188,0.96972656,0.03125,0.25,0.21875,0.0,0.0,0.0
1696287415481,0.23535156,-0.025390625,0.99316406,-0.09375,0.0625,0.03125,0.0,0.0,0.0
1696287415574,0.23828125,-0.033203125,0.96972656,-0.09375,0.125,-0.15625,0.0,0.0,0.0
1696287415577,0.23828125,-0.032226562,0.96972656,0.28125,0.25,-0.03125,0.0,0.0,0.0
1696287415601,0.23632812,-0.022460938,0.9609375,0.15625,0.1875,-0.21875,0.0,0.0,0.0
1696287415665,0.23828125,-0.022460938,0.96777344,0.21875,0.125,-0.03125,0.0,0.0,0.0
1696287415694,0.23828125,-0.025390625,0.9609375,0.21875,0.3125,-0.21875,0.0,0.0,0.0
1696287415720,0.24121094,-0.02734375,0.96972656,0.09375,0.125,-0.15625,0.0,0.0,0.0
1696287415781,0.23828125,-0.02734375,0.96191406,-0.34375,-0.0625,0.09375,0.0,0.0,0.0
1696287415814,0.23339844,-0.028320312,0.953125,0.03125,0.0625,0.40625,0.0,0.0,0.0
1696287415847,0.23925781,-0.030273438,0.9824219,0.09375,0.3125,0.21875,-2.25,-35.0625,-162.375
1696287415900,0.23339844,-0.032226562,0.9609375,0.4375,0.3125,0.03125,0.0,0.0,0.0
1696287415930,0.23242188,-0.020507812,0.9707031,-0.15625,0.375,-0.34375,0.0,0.0,0.0
1696287415962,0.23144531,-0.026367188,0.96484375,0.03125,0.1875,-0.15625,0.0,0.0,0.0
1696287416020,0.234375,-0.021484375,0.9609375,-0.21875,0.0625,0.03125,0.0,0.0,0.0
1696287416051,0.23242188,-0.022460938,0.96972656,-0.34375,-0.0625,0.03125,0.0,0.0,0.0
1696287416081,0.23046875,-0.033203125,0.9736328,0.09375,0.1875,-0.09375,0.0,0.0,0.0
1696287416143,0.24023438,-0.03515625,0.9580078,-0.09375,0.1875,0.03125,0.0,0.0,0.0
1696287416174,0.22949219,-0.028320312,0.9667969,0.21875,0.125,0.09375,0.0,0.0,0.0
1696287416200,0.24316406,-0.040039062,0.9589844,-0.21875,0.0,-0.21875,0.0,0.0,0.0
1696287416263,0.23925781,-0.030273438,0.96191406,0.5,0.0625,-0.21875,0.0,0.0,0.0
1696287416291,0.23535156,-0.032226562,0.96777344,-0.21875,-0.125,0.03125,0.0,0.0,0.0
1696287416322,0.24023438,-0.0234375,0.9628906,0.21875,0.0625,-0.03125,-4.625,-34.625,-163.25
1696287416382,0.23730469,-0.0234375,0.96191406,-0.34375,0.1875,-0.03125,0.0,0.0,0.0
1696287416412,0.23730469,-0.026367188,0.9707031,-0.03125,-0.125,0.09375,0.0,0.0,0.0
1696287416444,0.23046875,-0.022460938,0.96191406,0.15625,0.3125,0.09375,0.0,0.0,0.0
1696287416596,0.23535156,-0.0234375,0.9638672,-0.03125,0.125,-0.15625,0.0,0.0,0.0
1696287416598,0.23046875,-0.026367188,0.96484375,-0.03125,-0.0625,-0.34375,0.0,0.0,0.0
1696287416602,0.23828125,-0.022460938,0.96972656,-0.15625,-0.0625,-0.03125,0.0,0.0,0.0
1696287416622,0.23828125,-0.037109375,0.9765625,-0.03125,-0.0625,0.21875,0.0,0.0,0.0
1696287416656,0.24023438,-0.021484375,0.95996094,-0.34375,-0.0625,0.15625,0.0,0.0,0.0
1696287416680,0.23828125,-0.03515625,0.9716797,0.375,0.1875,-0.09375,0.0,0.0,0.0
1696287416745,0.23242188,-0.033203125,0.97265625,-0.28125,-0.1875,0.03125,0.0,0.0,0.0
1696287416772,0.24804688,-0.036132812,0.9765625,0.28125,0.25,0.03125,0.0,0.0,0.0
1696287416801,0.24023438,-0.0234375,0.9765625,0.03125,0.125,-0.15625,0.0,0.0,0.0
1696287416954,0.23339844,-0.025390625,0.9863281,-0.09375,0.0,-0.09375,-3.125,-36.4375,-163.875
1696287416957,0.23925781,-0.0390625,0.96777344,-0.03125,-0.125,0.15625,0.0,0.0,0.0
1696287416958,0.22949219,-0.026367188,0.9658203,-0.21875,-0.25,0.28125,0.0,0.0,0.0
1696287417010,0.23339844,-0.034179688,0.96191406,-0.21875,-0.625,-0.03125,0.0,0.0,0.0
1696287417012,0.23925781,-0.028320312,0.97265625,-0.09375,0.3125,0.03125,0.0,0.0,0.0
1696287417039,0.23828125,-0.037109375,0.98046875,-0.03125,-0.4375,0.09375,0.0,0.0,0.0
1696287417105,0.22753906,-0.028320312,0.9628906,-0.03125,0.375,-0.03125,0.0,0.0,0.0
1696287417132,0.234375,-0.029296875,0.9658203,0.03125,-0.3125,-0.03125,0.0,0.0,0.0
1696287417161,0.23925781,-0.026367188,0.9560547,0.15625,-0.0625,0.09375,0.0,0.0,0.0
1696287417221,0.23632812,-0.034179688,0.9560547,0.03125,0.46875,-0.15625,0.0,0.0,0.0
1696287417253,0.234375,-0.033203125,0.9707031,0.15625,0.25,-0.09375,0.0,0.0,0.0
1696287417283,0.23730469,-0.03515625,0.9580078,-0.03125,-0.3125,-0.15625,0.0,0.0,0.0
1696287417343,0.24023438,-0.029296875,0.9667969,0.03125,-0.0625,0.21875,-4.1875,-35.9375,-163.5625
1696287417370,0.24316406,-0.02734375,0.9746094,0.09375,0.3125,0.03125,0.0,0.0,0.0
1696287417402,0.23925781,-0.030273438,0.9658203,-0.15625,-0.125,0.03125,0.0,0.0,0.0
1696287417464,0.23242188,-0.029296875,0.98046875,-0.03125,-0.0625,-0.21875,0.0,0.0,0.0
1696287417491,0.23242188,-0.026367188,0.9550781,-0.21875,-0.3125,-0.15625,0.0,0.0,0.0
1696287417521,0.23730469,-0.038085938,0.95703125,0.09375,-0.125,0.28125,0.0,0.0,0.0
1696287417585,0.22753906,-0.016601562,0.97558594,0.15625,0.25,0.28125,0.0,0.0,0.0
1696287417613,0.23925781,-0.024414062,0.9628906,0.09375,-0.1875,-0.15625,0.0,0.0,0.0
1696287417641,0.23828125,-0.0234375,0.97558594,-0.40625,-0.125,-0.03125,0.0,0.0,0.0
1696287417702,0.2421875,-0.022460938,0.9628906,0.3125,-0.0625,0.15625,0.0,0.0,0.0
1696287417732,0.2421875,-0.03125,0.9707031,-0.15625,-0.0625,0.15625,0.0,0.0,0.0
1696287417762,0.23535156,-0.038085938,0.97558594,0.28125,0.3125,-0.03125,0.0,0.0,0.0
1696287417913,0.23925781,-0.029296875,0.96191406,-0.71875,-0.25,-0.15625,0.0,0.0,0.0
1696287417915,0.23632812,-0.032226562,0.9794922,0.28125,-0.0625,-0.03125,-2.875,-35.1875,-163.5625
1696287417916,0.24511719,-0.026367188,0.97558594,-0.21875,-0.375,0.15625,0.0,0.0,0.0
1696287417973,0.24511719,-0.026367188,0.9785156,0.03125,-0.125,-0.09375,0.0,0.0,0.0
1696287417975,0.23144531,-0.029296875,0.9609375,0.15625,0.25,-0.21875,0.0,0.0,0.0
1696287418002,0.24511719,-0.026367188,0.9707031,-0.15625,0.0625,-0.09375,0.0,0.0,0.0
1696287418063,0.234375,-0.032226562,0.97558594,0.03125,-0.125,-0.03125,0.0,0.0,0.0
1696287418089,0.2421875,-0.028320312,0.9580078,0.03125,0.0,0.15625,0.0,0.0,0.0
1696287418127,0.234375,-0.028320312,0.9746094,0.09375,0.46875,0.03125,0.0,0.0,0.0
1696287418185,0.23632812,-0.036132812,0.953125,0.21875,-0.1875,-0.09375,0.0,0.0,0.0
1696287418212,0.23046875,-0.024414062,0.96972656,-0.15625,0.3125,-0.09375,0.0,0.0,0.0
1696287418241,0.23925781,-0.026367188,0.94628906,-0.03125,0.0625,-0.15625,0.0,0.0,0.0
1696287418337,0.24121094,-0.028320312,0.9716797,-0.15625,-0.0625,0.15625,-3.75,-36.125,-162.9375
1696287418340,0.23925781,-0.022460938,0.96484375,-0.15625,0.25,0.03125,0.0,0.0,0.0
1696287418364,0.24316406,-0.03515625,0.96484375,-0.09375,-0.0625,0.09375,0.0,0.0,0.0
1696287418426,0.2421875,-0.032226562,0.9628906,-0.09375,-0.1875,0.15625,0.0,0.0,0.0
1696287418454,0.23242188,-0.026367188,0.9667969,-0.03125,0.0,-0.03125,0.0,0.0,0.0
1696287418481,0.23339844,-0.030273438,0.9873047,0.21875,0.0625,-0.03125,0.0,0.0,0.0
1696287418547,0.23828125,-0.030273438,0.9746094,0.15625,0.0625,-0.03125,0.0,0.0,0.0
1696287418572,0.23046875,-0.029296875,0.95703125,-0.09375,0.1875,-0.03125,0.0,0.0,0.0
1696287418602,0.23242188,-0.0234375,0.9580078,-0.15625,-0.5,0.34375,0.0,0.0,0.0
1696287418664,0.24023438,-0.032226562,0.97753906,0.21875,0.125,0.53125,0.0,0.0,0.0
1696287418690,0.2421875,-0.032226562,0.9785156,-0.40625,0.0,0.34375,0.0,0.0,0.0
1696287418723,0.23632812,-0.024414062,0.98339844,0.5,0.25,0.34375,0.0,0.0,0.0
1696287418817,0.24121094,-0.03125,0.9550781,0.03125,0.25,0.03125,0.0,0.0,0.0
1696287418821,0.22949219,-0.029296875,0.97558594,-0.21875,0.25,-0.40625,0.0,0.0,0.0
1696287418851,0.24023438,-0.03125,0.9716797,0.28125,0.1875,-0.09375,-3.875,-35.6875,-164.625
1696287418937,0.23046875,-0.018554688,0.9658203,-0.15625,-0.4375,0.21875,0.0,0.0,0.0
1696287418943,0.23046875,-0.028320312,0.9794922,0.5625,0.3125,0.34375,0.0,0.0,0.0
1696287418965,0.23925781,-0.030273438,0.9628906,-0.46875,-0.0625,-0.21875,0.0,0.0,0.0
1696287419021,0.23632812,-0.03515625,0.96972656,0.03125,0.125,-0.21875,0.0,0.0,0.0
1696287419052,0.24121094,-0.032226562,0.97558594,-0.28125,0.0,0.03125,0.0,0.0,0.0
1696287419082,0.24316406,-0.025390625,0.95703125,0.03125,0.125,0.28125,0.0,0.0,0.0
1696287419146,0.24609375,-0.029296875,0.9736328,0.09375,0.1875,0.15625,0.0,0.0,0.0
1696287419172,0.24316406,-0.028320312,0.9628906,-0.03125,-0.0625,0.15625,0.0,0.0,0.0
1696287419201,0.23144531,-0.029296875,0.9824219,0.3125,-0.1875,0.15625,0.0,0.0,0.0
