# Sensor type: Thingy
# Activity type: Sitting
# Activity subtype: Normal
# Subject id: s2094833
# Notes: 
timestamp,accel_x,accel_y,accel_z,gyro_x,gyro_y,gyro_z,mag_x,mag_y,mag_z
1696287315406,0.060546875,-0.044921875,0.9941406,0.0,0.03125,0.03125,-12.625,-31.9375,-157.5625
1696287315409,0.060546875,-0.044921875,1.0009766,-0.125,-0.03125,-0.09375,0.0,0.0,0.0
1696287315413,0.051757812,-0.04296875,0.9921875,-0.0625,-0.21875,0.09375,0.0,0.0,0.0
1696287315465,0.049804688,-0.0390625,0.9873047,0.0625,-0.03125,0.09375,0.0,0.0,0.0
1696287315490,0.051757812,-0.044921875,0.9863281,-0.1875,-0.15625,-0.09375,0.0,0.0,0.0
1696287315521,0.051757812,-0.05078125,0.9941406,0.1875,0.09375,0.09375,0.0,0.0,0.0
1696287315581,0.048828125,-0.037109375,0.98339844,-0.1875,-0.34375,-0.09375,0.0,0.0,0.0
1696287315611,0.056640625,-0.041992188,1.0,0.25,0.40625,-0.09375,0.0,0.0,0.0
1696287315642,0.057617188,-0.036132812,1.0058594,-0.0625,-0.09375,0.03125,0.0,0.0,0.0
1696287315734,0.05078125,-0.033203125,0.98535156,-0.25,-0.09375,-0.03125,0.0,0.0,0.0
1696287315736,0.051757812,-0.041015625,0.9951172,0.0,-0.34375,0.15625,0.0,0.0,0.0
1696287315762,0.053710938,-0.044921875,1.0009766,-0.1875,-0.28125,0.15625,0.0,0.0,0.0
1696287315822,0.05078125,-0.049804688,1.0029297,0.0,-0.03125,-0.09375,0.0,0.0,0.0
1696287315851,0.05859375,-0.0390625,0.9921875,0.0,0.21875,-0.09375,-14.125,-34.3125,-159.5
1696287315881,0.0546875,-0.049804688,1.0039062,-0.1875,-0.15625,-0.15625,0.0,0.0,0.0
1696287315946,0.046875,-0.045898438,0.98535156,0.1875,-0.09375,-0.15625,0.0,0.0,0.0
1696287315972,0.051757812,-0.037109375,0.99121094,0.0,-0.4375,0.03125,0.0,0.0,0.0
1696287316001,0.052734375,-0.038085938,0.9970703,0.0,0.03125,-0.09375,0.0,0.0,0.0
1696287316065,0.05078125,-0.040039062,1.0039062,-0.0625,-0.09375,0.15625,0.0,0.0,0.0
1696287316090,0.057617188,-0.04296875,0.9824219,-0.0625,-0.15625,0.09375,0.0,0.0,0.0
1696287316120,0.051757812,-0.041015625,0.9902344,-0.125,-0.21875,0.09375,0.0,0.0,0.0
1696287316212,0.044921875,-0.046875,0.9970703,-0.0625,-0.03125,-0.1875,0.0,0.0,0.0
1696287316213,0.049804688,-0.04296875,0.99609375,0.1875,-0.03125,-0.03125,0.0,0.0,0.0
1696287316241,0.053710938,-0.044921875,1.0058594,-0.125,-0.34375,0.09375,0.0,0.0,0.0
1696287316306,0.057617188,-0.044921875,0.99609375,0.5625,0.40625,-0.09375,0.0,0.0,0.0
1696287316331,0.06347656,-0.041992188,0.9824219,-0.3125,-0.40625,0.03125,-13.1875,-35.6875,-160.125
1696287316361,0.051757812,-0.049804688,0.98828125,0.0625,0.03125,-0.03125,0.0,0.0,0.0
1696287316423,0.053710938,-0.0390625,1.0009766,-0.375,-0.34375,0.21875,0.0,0.0,0.0
1696287316458,0.052734375,-0.041992188,0.99121094,-0.4375,0.09375,-0.03125,0.0,0.0,0.0
1696287316481,0.052734375,-0.045898438,1.0039062,0.125,0.09375,0.09375,0.0,0.0,0.0
1696287316545,0.0546875,-0.040039062,1.0029297,-0.25,-0.03125,0.09375,0.0,0.0,0.0
1696287316571,0.048828125,-0.038085938,0.99609375,0.0625,0.03125,-0.09375,0.0,0.0,0.0
1696287316604,0.059570312,-0.041992188,0.9873047,-0.0625,-0.40625,-0.03125,0.0,0.0,0.0
1696287316698,0.049804688,-0.047851562,0.9902344,-0.1875,-0.15625,0.03125,0.0,0.0,0.0
1696287316700,0.052734375,-0.041992188,1.0048828,0.0,-0.03125,0.03125,0.0,0.0,0.0
1696287316723,0.052734375,-0.041992188,0.99609375,-0.375,0.03125,0.09375,0.0,0.0,0.0
1696287316851,0.0546875,-0.043945312,0.98828125,0.0625,-0.03125,0.03125,0.0,0.0,0.0
1696287316855,0.057617188,-0.046875,1.0146484,-0.0625,-0.28125,-0.09375,0.0,0.0,0.0
1696287316856,0.053710938,-0.040039062,0.9970703,-0.0625,0.03125,-0.09375,-13.0625,-35.5,-159.9375
1696287316901,0.053710938,-0.044921875,0.9863281,0.0,-0.4375,0.09375,0.0,0.0,0.0
1696287316931,0.052734375,-0.04296875,1.0126953,0.5,0.65625,-0.03125,0.0,0.0,0.0
1696287316962,0.07128906,-0.036132812,0.98339844,-0.625,-0.21875,-0.15625,0.0,0.0,0.0
1696287317024,0.056640625,-0.045898438,0.9873047,0.5625,0.09375,0.03125,0.0,0.0,0.0
1696287317053,0.052734375,-0.038085938,0.99121094,-0.0625,-0.40625,0.09375,0.0,0.0,0.0
1696287317082,0.05859375,-0.0390625,1.0009766,-0.5,-0.09375,-0.09375,0.0,0.0,0.0
1696287317145,0.04296875,-0.044921875,0.99316406,0.4375,0.15625,0.09375,0.0,0.0,0.0
1696287317172,0.056640625,-0.04296875,0.9814453,-0.375,0.09375,-0.09375,0.0,0.0,0.0
1696287317202,0.052734375,-0.044921875,0.9970703,0.125,0.09375,-0.09375,0.0,0.0,0.0
1696287317293,0.05859375,-0.046875,0.9951172,-0.0625,-0.15625,-0.03125,0.0,0.0,0.0
1696287317296,0.052734375,-0.034179688,0.9941406,-0.25,-0.28125,0.15625,0.0,0.0,0.0
1696287317321,0.053710938,-0.045898438,0.9970703,0.125,-0.03125,0.03125,-12.4375,-31.75,-158.75
1696287317383,0.05859375,-0.038085938,0.9863281,-0.375,0.09375,0.03125,0.0,0.0,0.0
1696287317412,0.055664062,-0.044921875,0.99121094,-0.1875,-0.15625,0.09375,0.0,0.0,0.0
1696287317443,0.052734375,-0.053710938,0.9863281,0.0,-0.21875,-0.03125,0.0,0.0,0.0
1696287317504,0.0625,-0.047851562,1.0019531,-0.0625,-0.4375,0.03125,0.0,0.0,0.0
1696287317531,0.0625,-0.0390625,0.99609375,-0.125,-0.15625,-0.15625,0.0,0.0,0.0
1696287317562,0.046875,-0.041992188,0.9863281,0.1875,0.28125,-0.1875,0.0,0.0,0.0
1696287317750,0.060546875,-0.034179688,0.99316406,0.25,0.40625,-0.15625,0.0,0.0,0.0
1696287317751,0.06347656,-0.041992188,0.9892578,0.375,0.28125,-0.09375,0.0,0.0,0.0
1696287317752,0.05859375,-0.045898438,1.0058594,-0.0625,-0.21875,-0.15625,0.0,0.0,0.0
1696287317753,0.052734375,-0.045898438,0.99609375,0.1875,-0.34375,0.15625,0.0,0.0,0.0
1696287317772,0.056640625,-0.028320312,1.0107422,-0.3125,0.09375,0.03125,0.0,0.0,0.0
1696287317801,0.048828125,-0.045898438,0.9892578,-0.0625,0.40625,0.03125,0.0,0.0,0.0
1696287317862,0.05859375,-0.043945312,1.0039062,-0.1875,-0.03125,0.03125,-14.6875,-33.5625,-158.0
1696287317891,0.06738281,-0.0390625,0.9980469,0.125,0.09375,-0.15625,0.0,0.0,0.0
1696287317920,0.049804688,-0.046875,0.9951172,-0.0625,-0.28125,0.03125,0.0,0.0,0.0
1696287317984,0.051757812,-0.051757812,0.9970703,-0.0625,-0.15625,0.03125,0.0,0.0,0.0
1696287318011,0.047851562,-0.043945312,0.9980469,0.0625,0.21875,-0.09375,0.0,0.0,0.0
1696287318041,0.055664062,-0.043945312,1.0,-0.0625,0.03125,-0.09375,0.0,0.0,0.0
1696287318164,0.05859375,-0.037109375,0.9951172,-0.125,0.09375,-0.15625,0.0,0.0,0.0
1696287318168,0.040039062,-0.0390625,0.9863281,-0.0625,-0.21875,-0.09375,0.0,0.0,0.0
1696287318170,0.048828125,-0.0546875,1.0,-0.0625,-0.4375,0.21875,0.0,0.0,0.0
1696287318283,0.052734375,-0.043945312,1.0019531,0.0,0.15625,-0.03125,0.0,0.0,0.0
1696287318285,0.056640625,-0.051757812,1.0029297,-0.125,-0.03125,-0.09375,0.0,0.0,0.0
1696287318286,0.06738281,-0.044921875,0.9892578,0.25,0.21875,-0.1875,0.0,0.0,0.0
1696287318342,0.051757812,-0.05078125,1.0068359,0.0,-0.21875,-0.15625,-12.625,-35.5,-158.125
1696287318373,0.0546875,-0.044921875,1.0087891,0.0,0.09375,-0.09375,0.0,0.0,0.0
1696287318402,0.05078125,-0.046875,0.98828125,-0.0625,-0.15625,-0.03125,0.0,0.0,0.0
1696287318469,0.057617188,-0.043945312,1.0019531,-0.1875,-0.28125,0.09375,0.0,0.0,0.0
1696287318490,0.053710938,-0.046875,1.0029297,-0.0625,0.09375,-0.09375,0.0,0.0,0.0
1696287318522,0.053710938,-0.0390625,0.984375,-0.125,-0.03125,-0.03125,0.0,0.0,0.0
1696287318551,0.049804688,-0.041015625,0.9863281,0.125,-0.03125,-0.09375,0.0,0.0,0.0
1696287318734,0.041992188,-0.041992188,0.99609375,-0.125,-0.09375,-0.1875,0.0,0.0,0.0
1696287318736,0.056640625,-0.041992188,0.9902344,-0.0625,-0.09375,-0.03125,0.0,0.0,0.0
1696287318738,0.053710938,-0.048828125,1.0009766,0.0,0.21875,0.03125,0.0,0.0,0.0
1696287318760,0.052734375,-0.044921875,0.99902344,-0.125,0.09375,-0.03125,0.0,0.0,0.0
1696287318762,0.047851562,-0.045898438,0.98828125,0.0625,-0.09375,0.03125,0.0,0.0,0.0
1696287318791,0.053710938,-0.04296875,1.0029297,0.0,-0.34375,0.03125,0.0,0.0,0.0
1696287318853,0.051757812,-0.046875,1.0009766,0.0625,-0.15625,0.03125,-12.125,-33.875,-159.8125
1696287318881,0.055664062,-0.047851562,0.9814453,-0.1875,-0.03125,0.09375,0.0,0.0,0.0
1696287318911,0.060546875,-0.036132812,0.9902344,0.375,0.21875,-0.15625,0.0,0.0,0.0
1696287318972,0.056640625,-0.037109375,0.9970703,-0.125,-0.21875,-0.03125,0.0,0.0,0.0
1696287319001,0.048828125,-0.048828125,0.9902344,0.0,-0.03125,-0.15625,0.0,0.0,0.0
1696287319031,0.0546875,-0.046875,0.9951172,-0.0625,-0.21875,-0.03125,0.0,0.0,0.0
1696287319126,0.052734375,-0.0546875,0.99316406,0.0,-0.03125,-0.03125,0.0,0.0,0.0
1696287319129,0.060546875,-0.037109375,0.99609375,-0.125,-0.09375,0.15625,0.0,0.0,0.0
1696287319149,0.060546875,-0.041992188,1.0,-0.125,0.21875,-0.15625,0.0,0.0,0.0
1696287319213,0.0546875,-0.041015625,1.0009766,-0.0625,-0.09375,-0.15625,0.0,0.0,0.0
1696287319303,0.05078125,-0.04296875,1.0039062,0.0,-0.03125,0.03125,0.0,0.0,0.0
1696287319332,0.047851562,-0.037109375,0.9873047,-0.1875,-0.34375,0.03125,0.0,0.0,0.0
1696287319334,0.0625,-0.037109375,0.9873047,0.0625,0.03125,-0.03125,-13.0625,-32.9375,-158.875
1696287319362,0.0546875,-0.047851562,1.0029297,-0.1875,-0.09375,-0.09375,0.0,0.0,0.0
1696287319392,0.053710938,-0.04296875,1.0,-0.125,-0.15625,-0.09375,0.0,0.0,0.0
1696287319451,0.047851562,-0.049804688,0.9951172,0.125,0.03125,-0.09375,0.0,0.0,0.0
1696287319482,0.051757812,-0.044921875,1.0009766,-0.1875,-0.21875,-0.15625,0.0,0.0,0.0
1696287319514,0.047851562,-0.04296875,0.99609375,0.125,0.15625,0.03125,0.0,0.0,0.0
1696287319574,0.0546875,-0.05078125,0.9873047,-0.125,-0.28125,-0.03125,0.0,0.0,0.0
1696287319601,0.046875,-0.046875,0.9970703,0.3125,0.15625,-0.09375,0.0,0.0,0.0
1696287319630,0.0546875,-0.0390625,0.9951172,0.0,-0.28125,0.03125,0.0,0.0,0.0
1696287319721,0.048828125,-0.037109375,0.9951172,-0.1875,-0.28125,-0.09375,0.0,0.0,0.0
1696287319723,0.056640625,-0.038085938,0.99316406,0.0625,-0.15625,-0.03125,0.0,0.0,0.0
1696287319751,0.041992188,-0.051757812,0.9814453,-0.1875,-0.21875,0.03125,0.0,0.0,0.0
1696287319810,0.057617188,-0.04296875,1.0039062,0.0,0.21875,-0.09375,0.0,0.0,0.0
1696287319840,0.053710938,-0.041992188,1.0009766,-0.1875,-0.09375,-0.03125,-13.1875,-34.1875,-158.75
1696287319870,0.049804688,-0.0390625,1.0048828,0.0,-0.09375,-0.03125,0.0,0.0,0.0
1696287319930,0.0546875,-0.044921875,0.9951172,-0.125,-0.15625,-0.09375,0.0,0.0,0.0
1696287319960,0.057617188,-0.040039062,0.9902344,-0.125,-0.15625,-0.03125,0.0,0.0,0.0
1696287319990,0.043945312,-0.043945312,0.9892578,-0.0625,-0.09375,-0.03125,0.0,0.0,0.0
1696287320111,0.047851562,-0.030273438,1.0058594,-0.1875,-0.09375,0.09375,0.0,0.0,0.0
1696287320113,0.056640625,-0.041992188,0.9824219,-0.125,-0.09375,0.03125,0.0,0.0,0.0
1696287320114,0.0546875,-0.04296875,0.9794922,-0.0625,-0.28125,0.03125,0.0,0.0,0.0
1696287320231,0.056640625,-0.037109375,1.0175781,-0.0625,-0.15625,-0.03125,0.0,0.0,0.0
1696287320232,0.053710938,-0.048828125,0.9921875,-0.0625,-0.21875,0.09375,0.0,0.0,0.0
1696287320233,0.057617188,-0.044921875,0.98535156,0.25,0.09375,-0.09375,0.0,0.0,0.0
1696287320293,0.051757812,-0.04296875,0.9951172,0.0625,0.21875,-0.1875,0.0,0.0,0.0
1696287320320,0.05078125,-0.043945312,0.99609375,-0.125,-0.09375,0.03125,-13.5,-32.375,-159.0625
1696287320351,0.052734375,-0.037109375,0.9921875,0.125,-0.09375,0.09375,0.0,0.0,0.0
1696287320414,0.0546875,-0.04296875,0.99609375,0.125,-0.15625,0.09375,0.0,0.0,0.0
1696287320441,0.061523438,-0.049804688,1.0078125,0.03125,0.0625,0.03125,0.0,0.0,0.0
1696287320470,0.051757812,-0.04296875,1.0097656,0.09375,0.28125,-0.15625,0.0,0.0,0.0
1696287320566,0.059570312,-0.041015625,0.98535156,-0.09375,0.0,-0.03125,0.0,0.0,0.0
1696287320567,0.053710938,-0.041992188,1.0039062,0.15625,0.0,-0.09375,0.0,0.0,0.0
1696287320592,0.048828125,-0.036132812,0.9970703,-0.09375,-0.375,0.09375,0.0,0.0,0.0
1696287320650,0.049804688,-0.047851562,0.9892578,0.03125,0.09375,0.03125,0.0,0.0,0.0
1696287320682,0.0625,-0.04296875,0.9873047,-0.03125,0.0625,-0.09375,0.0,0.0,0.0
1696287320713,0.047851562,-0.048828125,1.0009766,0.03125,0.09375,-0.03125,0.0,0.0,0.0
1696287320774,0.061523438,-0.034179688,0.99609375,-0.03125,-0.125,-0.09375,0.0,0.0,0.0
1696287320801,0.055664062,-0.045898438,1.0078125,-0.03125,-0.1875,-0.03125,0.0,0.0,0.0
1696287320838,0.059570312,-0.04296875,1.0107422,0.1875,0.15625,0.03125,-13.5,-33.125,-159.0625
1696287320893,0.052734375,-0.032226562,0.99121094,-0.21875,-0.375,0.03125,0.0,0.0,0.0
1696287320920,0.052734375,-0.0390625,1.0009766,0.6875,0.84375,-0.09375,0.0,0.0,0.0
1696287320951,0.059570312,-0.043945312,1.0039062,-0.40625,-0.25,-0.09375,0.0,0.0,0.0
1696287321050,0.04296875,-0.040039062,0.9980469,0.15625,0.0,-0.09375,0.0,0.0,0.0
1696287321051,0.057617188,-0.046875,0.99609375,-0.03125,-0.1875,0.09375,0.0,0.0,0.0
1696287321069,0.0546875,-0.047851562,0.9980469,-0.34375,0.0,0.03125,0.0,0.0,0.0
1696287321132,0.052734375,-0.05078125,0.9794922,0.375,0.09375,0.03125,0.0,0.0,0.0
1696287321161,0.059570312,-0.036132812,0.9873047,-0.15625,0.0,-0.15625,0.0,0.0,0.0
1696287321192,0.0546875,-0.036132812,0.9951172,0.03125,0.0625,-0.03125,0.0,0.0,0.0
1696287321255,0.048828125,-0.041015625,0.9863281,0.3125,0.0625,0.15625,0.0,0.0,0.0
1696287321281,0.051757812,-0.0390625,1.0058594,-0.03125,-0.0625,0.09375,0.0,0.0,0.0
1696287321310,0.059570312,-0.038085938,0.9951172,0.1875,0.09375,-0.09375,-15.0,-32.375,-158.0
1696287321374,0.053710938,-0.04296875,0.9951172,-0.21875,0.0,-0.09375,0.0,0.0,0.0
1696287321401,0.053710938,-0.0390625,0.9902344,0.15625,0.09375,-0.03125,0.0,0.0,0.0
1696287321434,0.048828125,-0.046875,1.0136719,-0.03125,-0.0625,-0.03125,0.0,0.0,0.0
1696287321493,0.057617188,-0.0390625,1.0,0.03125,-0.125,-0.03125,0.0,0.0,0.0
1696287321521,0.052734375,-0.043945312,1.0,0.15625,0.0,0.09375,0.0,0.0,0.0
1696287321646,0.053710938,-0.048828125,0.9863281,-0.03125,0.34375,-0.1875,0.0,0.0,0.0
1696287321649,0.052734375,-0.037109375,0.99316406,-0.15625,-0.0625,0.03125,0.0,0.0,0.0
1696287321652,0.048828125,-0.045898438,1.0009766,0.25,0.0625,0.09375,0.0,0.0,0.0
1696287321670,0.05859375,-0.046875,0.9863281,-0.15625,-0.3125,0.09375,0.0,0.0,0.0
1696287321730,0.056640625,-0.037109375,1.0019531,-0.34375,-0.0625,-0.15625,0.0,0.0,0.0
1696287321759,0.0546875,-0.046875,0.9970703,0.03125,0.21875,-0.15625,0.0,0.0,0.0
1696287321827,0.051757812,-0.04296875,0.9902344,-0.34375,0.0625,0.03125,0.0,0.0,0.0
1696287321856,0.05078125,-0.040039062,0.984375,0.1875,0.0,-0.03125,-13.0625,-34.0,-158.625
1696287321881,0.060546875,-0.04296875,0.99316406,0.09375,-0.1875,0.09375,0.0,0.0,0.0
1696287321913,0.052734375,-0.03515625,1.0029297,0.09375,0.0,-0.09375,0.0,0.0,0.0
1696287321975,0.056640625,-0.037109375,0.99121094,-0.09375,0.15625,-0.03125,0.0,0.0,0.0
1696287322001,0.051757812,-0.048828125,0.99902344,-0.03125,-0.0625,0.03125,0.0,0.0,0.0
1696287322032,0.052734375,-0.041015625,0.98828125,-0.15625,-0.125,-0.09375,0.0,0.0,0.0
1696287322125,0.05078125,-0.040039062,0.9941406,0.03125,0.0,0.03125,0.0,0.0,0.0
1696287322129,0.05859375,-0.04296875,0.9921875,-0.21875,-0.4375,0.09375,0.0,0.0,0.0
1696287322150,0.059570312,-0.0390625,1.0039062,0.5625,0.59375,-0.15625,0.0,0.0,0.0
1696287322214,0.053710938,-0.044921875,0.984375,-0.59375,-0.1875,-0.15625,0.0,0.0,0.0
1696287322240,0.056640625,-0.038085938,0.9970703,0.3125,-0.125,-0.15625,0.0,0.0,0.0
1696287322270,0.053710938,-0.038085938,0.9824219,0.09375,-0.375,0.09375,0.0,0.0,0.0
1696287322334,0.052734375,-0.041015625,1.0019531,-0.53125,0.0,0.09375,-13.8125,-33.6875,-158.625
1696287322362,0.049804688,-0.03515625,0.99121094,0.3125,0.21875,0.03125,0.0,0.0,0.0
1696287322393,0.052734375,-0.040039062,1.0097656,-0.34375,0.34375,-0.15625,0.0,0.0,0.0
1696287322451,0.056640625,-0.038085938,1.0029297,0.03125,0.0,-0.15625,0.0,0.0,0.0
1696287322481,0.057617188,-0.041992188,0.98828125,-0.03125,0.0,0.03125,0.0,0.0,0.0
1696287322510,0.0546875,-0.038085938,0.9863281,-0.21875,-0.125,0.03125,0.0,0.0,0.0
1696287322606,0.061523438,-0.04296875,1.0029297,0.03125,0.15625,-0.03125,0.0,0.0,0.0
1696287322609,0.046875,-0.045898438,0.98828125,0.03125,0.0625,0.09375,0.0,0.0,0.0
1696287322630,0.052734375,-0.04296875,0.9863281,-0.21875,-0.1875,-0.03125,0.0,0.0,0.0
1696287322692,0.055664062,-0.047851562,1.0087891,0.03125,-0.0625,-0.03125,0.0,0.0,0.0
1696287322722,0.057617188,-0.047851562,0.9921875,-0.28125,-0.4375,0.09375,0.0,0.0,0.0
1696287322750,0.049804688,-0.044921875,0.99902344,0.6875,0.59375,0.09375,0.0,0.0,0.0
1696287322845,0.048828125,-0.040039062,0.99902344,-0.59375,-0.125,-0.15625,0.0,0.0,0.0
1696287322847,0.053710938,-0.037109375,1.0029297,0.09375,0.15625,-0.15625,-13.9375,-33.875,-158.3125
1696287322871,0.057617188,-0.04296875,0.9951172,0.1875,-0.375,0.03125,0.0,0.0,0.0
1696287322935,0.046875,-0.041015625,1.0126953,-0.28125,0.0625,0.03125,0.0,0.0,0.0
1696287322964,0.060546875,-0.052734375,0.9980469,-0.21875,-0.0625,-0.03125,0.0,0.0,0.0
1696287322991,0.049804688,-0.041015625,0.9980469,0.03125,0.34375,0.03125,0.0,0.0,0.0
1696287323057,0.060546875,-0.046875,0.9921875,-0.46875,-0.3125,-0.15625,0.0,0.0,0.0
1696287323081,0.057617188,-0.041992188,1.0029297,0.125,0.0625,-0.09375,0.0,0.0,0.0
1696287323114,0.0546875,-0.0390625,0.99609375,-0.1875,-0.125,0.03125,0.0,0.0,0.0
1696287323173,0.051757812,-0.040039062,0.96972656,0.125,0.21875,-0.09375,0.0,0.0,0.0
1696287323199,0.047851562,-0.046875,1.0058594,-0.125,0.125,-0.09375,0.0,0.0,0.0
1696287323233,0.0703125,-0.038085938,0.9863281,0.0625,0.0625,-0.09375,0.0,0.0,0.0
1696287323295,0.05078125,-0.047851562,0.9921875,-0.0625,-0.25,-0.15625,0.0,0.0,0.0
1696287323322,0.052734375,-0.045898438,1.0019531,0.40625,0.125,0.09375,-13.375,-34.3125,-157.875
1696287323352,0.053710938,-0.045898438,0.99316406,-0.25,-0.125,0.15625,0.0,0.0,0.0
1696287323414,0.057617188,-0.043945312,1.0,0.90625,0.53125,-0.03125,0.0,0.0,0.0
1696287323441,0.048828125,-0.041992188,1.0,0.0,-0.25,-0.15625,0.0,0.0,0.0
1696287323470,0.051757812,-0.038085938,0.9902344,0.0625,0.0,-0.21875,0.0,0.0,0.0
1696287323563,0.049804688,-0.038085938,1.0,0.0,-0.125,0.03125,0.0,0.0,0.0
1696287323564,0.043945312,-0.040039062,1.0029297,0.0,0.0625,0.21875,0.0,0.0,0.0
1696287323594,0.046875,-0.038085938,0.99121094,-0.125,0.0625,0.03125,0.0,0.0,0.0
1696287323655,0.0625,-0.038085938,0.99316406,-0.25,0.125,-0.09375,0.0,0.0,0.0
1696287323692,0.053710938,-0.043945312,0.9970703,0.0,-0.125,-0.03125,0.0,0.0,0.0
1696287323711,0.057617188,-0.040039062,1.0058594,-0.0625,-0.0625,-0.09375,0.0,0.0,0.0
1696287323774,0.055664062,-0.04296875,0.9941406,0.0625,0.0,-0.03125,0.0,0.0,0.0
1696287323800,0.052734375,-0.034179688,0.9921875,0.0625,0.0,-0.09375,0.0,0.0,0.0
1696287323860,0.05859375,-0.040039062,0.9970703,-0.125,0.0,-0.09375,-12.875,-34.625,-158.75
1696287323890,0.05078125,-0.044921875,0.98828125,0.0625,0.125,0.03125,0.0,0.0,0.0
1696287323919,0.055664062,-0.04296875,0.9873047,-0.0625,-0.1875,0.09375,0.0,0.0,0.0
1696287323951,0.06640625,-0.048828125,0.99316406,0.125,0.0,-0.03125,0.0,0.0,0.0
1696287324042,0.05078125,-0.044921875,0.99609375,0.0625,0.21875,-0.03125,0.0,0.0,0.0
1696287324043,0.048828125,-0.041992188,0.9980469,0.0625,-0.0625,-0.21875,0.0,0.0,0.0
1696287324070,0.06542969,-0.033203125,0.9970703,0.0,-0.1875,-0.09375,0.0,0.0,0.0
1696287324132,0.0546875,-0.0390625,0.9863281,0.0,0.0625,-0.15625,0.0,0.0,0.0
1696287324161,0.060546875,-0.040039062,0.9814453,0.125,0.0625,-0.03125,0.0,0.0,0.0
1696287324193,0.057617188,-0.04296875,1.0078125,0.0,-0.1875,0.15625,0.0,0.0,0.0
1696287324255,0.051757812,-0.038085938,1.0068359,0.0,0.21875,-0.09375,0.0,0.0,0.0
1696287324280,0.059570312,-0.043945312,1.0048828,-0.0625,-0.125,-0.03125,0.0,0.0,0.0
1696287324312,0.059570312,-0.0390625,1.0,0.0,0.0,-0.09375,-13.1875,-33.5625,-159.8125
1696287324370,0.051757812,-0.045898438,1.0009766,0.0625,0.0625,-0.09375,0.0,0.0,0.0
1696287324404,0.04296875,-0.036132812,1.0058594,0.1875,-0.0625,-0.09375,0.0,0.0,0.0
1696287324430,0.047851562,-0.0390625,0.99316406,0.0,0.0,-0.03125,0.0,0.0,0.0
1696287324493,0.049804688,-0.041992188,0.9941406,0.0625,0.0625,-0.03125,0.0,0.0,0.0
1696287324519,0.052734375,-0.049804688,0.9902344,0.0,0.0,0.09375,0.0,0.0,0.0
1696287324553,0.060546875,-0.043945312,0.9970703,0.0625,-0.0625,-0.03125,0.0,0.0,0.0
1696287324616,0.0546875,-0.048828125,0.99316406,-0.0625,-0.0625,0.09375,0.0,0.0,0.0
1696287324641,0.052734375,-0.05078125,1.0087891,0.28125,0.28125,-0.03125,0.0,0.0,0.0
1696287324671,0.052734375,-0.038085938,1.0009766,0.0625,0.0625,-0.21875,0.0,0.0,0.0
1696287324730,0.051757812,-0.05078125,0.9873047,0.125,-0.0625,0.03125,0.0,0.0,0.0
1696287324760,0.051757812,-0.03515625,0.99316406,-0.1875,-0.1875,0.09375,0.0,0.0,0.0
1696287324791,0.057617188,-0.044921875,0.99121094,0.125,0.0625,-0.09375,0.0,0.0,0.0
1696287324911,0.05859375,-0.040039062,0.99609375,-0.25,-0.0625,0.03125,-12.3125,-33.25,-158.125
1696287324913,0.052734375,-0.044921875,0.9873047,-0.0625,0.21875,0.03125,0.0,0.0,0.0
1696287324918,0.048828125,-0.038085938,0.9873047,0.0,0.0,-0.09375,0.0,0.0,0.0
1696287325000,0.046875,-0.044921875,1.0029297,0.0625,0.0625,-0.09375,0.0,0.0,0.0
1696287325002,0.061523438,-0.044921875,0.9902344,-0.125,-0.1875,0.03125,0.0,0.0,0.0
1696287325030,0.059570312,-0.038085938,0.99121094,0.0625,0.0625,-0.09375,0.0,0.0,0.0
1696287325125,0.053710938,-0.045898438,1.0019531,-0.125,0.0625,-0.09375,0.0,0.0,0.0
1696287325127,0.055664062,-0.041992188,0.9980469,-0.0625,0.0625,-0.03125,0.0,0.0,0.0
1696287325151,0.059570312,-0.032226562,1.0029297,0.0,-0.0625,-0.09375,0.0,0.0,0.0
1696287325302,0.059570312,-0.044921875,0.9980469,0.28125,0.0625,-0.03125,0.0,0.0,0.0
1696287325305,0.0625,-0.044921875,0.9951172,-0.125,-0.3125,0.15625,0.0,0.0,0.0
1696287325307,0.053710938,-0.037109375,0.9785156,0.40625,0.53125,-0.09375,0.0,0.0,0.0
1696287325331,0.056640625,-0.036132812,0.98828125,-0.1875,-0.1875,-0.03125,-14.125,-33.6875,-159.5
1696287325362,0.05078125,-0.043945312,1.0,0.0625,0.28125,-0.09375,0.0,0.0,0.0
1696287325391,0.056640625,-0.0390625,0.98339844,-0.0625,-0.125,0.15625,0.0,0.0,0.0
1696287325454,0.0546875,-0.040039062,0.98828125,0.0625,-0.0625,0.09375,0.0,0.0,0.0
1696287325482,0.056640625,-0.040039062,1.0009766,0.0625,0.0625,-0.03125,0.0,0.0,0.0
1696287325511,0.060546875,-0.036132812,0.99609375,-0.0625,0.21875,-0.15625,0.0,0.0,0.0
1696287325573,0.049804688,-0.046875,0.9970703,0.0625,0.0,-0.15625,0.0,0.0,0.0
1696287325600,0.055664062,-0.0390625,0.9863281,0.0,-0.0625,-0.03125,0.0,0.0,0.0
1696287325634,0.052734375,-0.037109375,0.9980469,0.0,0.0,0.03125,0.0,0.0,0.0
1696287325692,0.053710938,-0.03515625,0.97753906,0.1875,0.125,0.03125,0.0,0.0,0.0
1696287325720,0.053710938,-0.047851562,0.99121094,-0.0625,0.0625,0.03125,0.0,0.0,0.0
1696287325751,0.051757812,-0.0390625,0.9941406,0.0625,-0.125,-0.03125,0.0,0.0,0.0
1696287325933,0.045898438,-0.041992188,0.9980469,0.0,-0.125,0.21875,0.0,0.0,0.0
1696287325937,0.047851562,-0.040039062,0.9970703,-0.0625,-0.125,0.21875,-12.875,-33.875,-159.0625
1696287325939,0.059570312,-0.045898438,1.0039062,0.125,0.125,-0.03125,0.0,0.0,0.0
1696287325962,0.052734375,-0.044921875,0.9951172,0.46875,0.59375,-0.03125,0.0,0.0,0.0
1696287325965,0.051757812,-0.040039062,0.99121094,0.0,-0.25,-0.15625,0.0,0.0,0.0
1696287325990,0.052734375,-0.036132812,0.97265625,0.28125,0.0625,-0.09375,0.0,0.0,0.0
1696287326058,0.060546875,-0.0390625,0.99609375,0.0,-0.4375,0.21875,0.0,0.0,0.0
1696287326082,0.049804688,-0.045898438,1.0117188,-0.25,0.21875,0.03125,0.0,0.0,0.0
1696287326146,0.05078125,-0.047851562,0.9921875,0.1875,0.46875,-0.03125,0.0,0.0,0.0
1696287326170,0.053710938,-0.047851562,0.9765625,-0.25,0.1875,0.03125,0.0,0.0,0.0
1696287326203,0.048828125,-0.045898438,0.9980469,0.40625,0.21875,-0.25,0.0,0.0,0.0
1696287326232,0.046875,-0.0390625,0.9941406,0.0625,-0.3125,0.03125,0.0,0.0,0.0
1696287326302,0.04296875,-0.0390625,0.9921875,0.0,-0.0625,-0.03125,0.0,0.0,0.0
1696287326319,0.056640625,-0.04296875,1.0078125,0.1875,0.1875,0.09375,0.0,0.0,0.0
1696287326350,0.053710938,-0.03125,0.99316406,-0.125,-0.0625,0.03125,-12.875,-33.875,-158.75
1696287326445,0.046875,-0.04296875,0.99609375,0.0,-0.125,-0.15625,0.0,0.0,0.0
1696287326450,0.059570312,-0.046875,0.99121094,-0.0625,-0.125,0.09375,0.0,0.0,0.0
1696287326473,0.044921875,-0.048828125,0.99609375,0.1875,-0.1875,0.09375,0.0,0.0,0.0
1696287326535,0.041015625,-0.041992188,0.9951172,0.1875,0.46875,-0.21875,0.0,0.0,0.0
1696287326561,0.053710938,-0.03515625,0.9873047,-0.1875,0.0625,-0.15625,0.0,0.0,0.0
1696287326590,0.047851562,-0.040039062,0.9873047,0.40625,0.0,-0.03125,0.0,0.0,0.0
1696287326656,0.061523438,-0.038085938,0.9951172,0.0,-0.375,0.09375,0.0,0.0,0.0
1696287326681,0.047851562,-0.043945312,0.984375,-0.25,0.0,-0.03125,0.0,0.0,0.0
1696287326713,0.044921875,-0.04296875,0.9980469,0.125,0.34375,-0.09375,0.0,0.0,0.0
1696287326863,0.056640625,-0.041992188,0.9863281,-0.5,-0.0625,0.09375,0.0,0.0,0.0
1696287326865,0.047851562,-0.036132812,1.0058594,0.34375,0.125,-0.03125,0.0,0.0,0.0
1696287326868,0.043945312,-0.043945312,1.0,0.125,-0.125,0.03125,-13.9375,-33.125,-158.0
1696287326873,0.061523438,-0.043945312,1.0019531,0.125,0.0,0.09375,0.0,0.0,0.0
1696287326922,0.0546875,-0.047851562,1.0039062,0.1875,0.1875,-0.03125,0.0,0.0,0.0
1696287326952,0.053710938,-0.041992188,0.9921875,-0.125,-0.0625,-0.03125,0.0,0.0,0.0
1696287327010,0.060546875,-0.046875,1.0019531,0.15625,0.0625,-0.09375,0.0,0.0,0.0
1696287327040,0.056640625,-0.03515625,0.9902344,-0.3125,-0.40625,0.15625,0.0,0.0,0.0
1696287327070,0.057617188,-0.0390625,1.0068359,0.59375,0.5,0.03125,0.0,0.0,0.0
1696287327102,0.0546875,-0.045898438,0.98339844,-0.5625,-0.09375,0.03125,0.0,0.0,0.0
1696287327164,0.0546875,-0.047851562,0.9824219,-0.03125,-0.09375,-0.03125,0.0,0.0,0.0
1696287327192,0.05859375,-0.041992188,0.9892578,0.21875,-0.28125,0.03125,0.0,0.0,0.0
1696287327223,0.0546875,-0.0390625,1.0029297,-0.5625,-0.15625,-0.09375,0.0,0.0,0.0
1696287327286,0.060546875,-0.033203125,1.0009766,0.15625,0.125,0.15625,0.0,0.0,0.0
1696287327311,0.053710938,-0.043945312,0.9951172,-0.1875,0.1875,-0.09375,0.0,0.0,0.0
1696287327406,0.061523438,-0.046875,1.0039062,-0.09375,-0.03125,-0.03125,-13.0625,-34.75,-158.875
1696287327411,0.05078125,-0.034179688,0.9970703,0.09375,-0.09375,-0.03125,0.0,0.0,0.0
1696287327433,0.05078125,-0.03515625,0.99316406,0.03125,-0.28125,0.03125,0.0,0.0,0.0
1696287327465,0.047851562,-0.03515625,0.9980469,0.03125,0.1875,0.03125,0.0,0.0,0.0
1696287327526,0.051757812,-0.0390625,1.0019531,0.03125,0.0625,-0.15625,0.0,0.0,0.0
1696287327552,0.053710938,-0.043945312,0.9980469,-0.1875,0.0,-0.03125,0.0,0.0,0.0
1696287327581,0.061523438,-0.047851562,0.9794922,-0.03125,-0.09375,0.03125,0.0,0.0,0.0
1696287327703,0.0546875,-0.046875,1.0058594,0.09375,-0.28125,0.21875,0.0,0.0,0.0
1696287327707,0.059570312,-0.044921875,0.99609375,-0.03125,0.5,-0.09375,0.0,0.0,0.0
1696287327709,0.0546875,-0.044921875,1.0,-0.375,-0.15625,-0.34375,0.0,0.0,0.0
1696287327761,0.046875,-0.041015625,1.0009766,0.21875,-0.28125,-0.21875,0.0,0.0,0.0
1696287327790,0.048828125,-0.045898438,1.0,-0.125,-0.46875,-0.03125,0.0,0.0,0.0
1696287327824,0.06542969,-0.041992188,0.99609375,-0.3125,-0.09375,-0.03125,-14.375,-34.3125,-159.1875
1696287327884,0.049804688,-0.0390625,1.0039062,-0.03125,0.375,0.03125,0.0,0.0,0.0
1696287327916,0.046875,-0.041992188,0.9794922,-0.375,0.125,-0.03125,0.0,0.0,0.0
1696287327941,0.056640625,-0.0390625,1.0009766,0.34375,0.0,0.03125,0.0,0.0,0.0
1696287328004,0.057617188,-0.041015625,0.99316406,-0.125,-0.46875,-0.09375,0.0,0.0,0.0
1696287328031,0.046875,-0.0390625,1.0019531,-0.125,0.0,-0.15625,0.0,0.0,0.0
1696287328062,0.05078125,-0.029296875,0.9824219,-0.25,-0.21875,0.03125,0.0,0.0,0.0
1696287328125,0.059570312,-0.05078125,0.9941406,-0.5,0.0,-0.03125,0.0,0.0,0.0
1696287328150,0.056640625,-0.044921875,0.99609375,-0.03125,0.1875,-0.09375,0.0,0.0,0.0
1696287328183,0.060546875,-0.045898438,0.98535156,-0.375,-0.34375,-0.03125,0.0,0.0,0.0
1696287328301,0.055664062,-0.038085938,0.9873047,0.59375,0.4375,-0.03125,0.0,0.0,0.0
1696287328303,0.056640625,-0.040039062,1.0068359,-0.25,-0.40625,-0.03125,0.0,0.0,0.0
1696287328305,0.044921875,-0.040039062,0.99121094,-0.125,0.125,-0.34375,0.0,0.0,0.0
1696287328366,0.041992188,-0.046875,0.99316406,-0.09375,-0.34375,0.09375,-13.375,-32.9375,-160.5625
1696287328422,0.05859375,-0.04296875,0.9921875,-0.375,-0.03125,0.03125,0.0,0.0,0.0
1696287328424,0.053710938,-0.0390625,0.99316406,0.15625,0.0,0.15625,0.0,0.0,0.0
1696287328486,0.056640625,-0.0390625,1.0,-0.25,0.125,-0.15625,0.0,0.0,0.0
1696287328511,0.053710938,-0.046875,0.98828125,-0.03125,-0.09375,0.03125,0.0,0.0,0.0
1696287328544,0.05078125,-0.040039062,1.0,0.28125,-0.21875,0.03125,0.0,0.0,0.0
1696287328605,0.052734375,-0.044921875,0.9824219,-0.375,0.0625,0.03125,0.0,0.0,0.0
1696287328631,0.049804688,-0.04296875,0.9892578,-0.03125,0.0625,0.03125,0.0,0.0,0.0
1696287328661,0.052734375,-0.033203125,1.0048828,-0.125,0.0625,-0.09375,0.0,0.0,0.0
1696287328848,0.044921875,-0.038085938,0.9873047,-0.25,-0.21875,0.03125,0.0,0.0,0.0
1696287328850,0.047851562,-0.041992188,0.99316406,-0.03125,0.0,0.09375,0.0,0.0,0.0
1696287328851,0.0546875,-0.04296875,1.0009766,-0.125,-0.09375,0.03125,0.0,0.0,0.0
1696287328852,0.060546875,-0.034179688,0.9970703,0.15625,0.125,-0.21875,-13.8125,-32.6875,-158.875
1696287328870,0.052734375,-0.045898438,0.9970703,-0.09375,-0.15625,-0.09375,0.0,0.0,0.0
1696287328902,0.049804688,-0.040039062,1.0058594,-0.1875,-0.03125,-0.09375,0.0,0.0,0.0
1696287328963,0.0546875,-0.052734375,0.9941406,-0.09375,-0.09375,-0.15625,0.0,0.0,0.0
1696287329002,0.059570312,-0.041992188,1.0019531,-0.1875,-0.03125,-0.03125,0.0,0.0,0.0
1696287329019,0.059570312,-0.044921875,0.9746094,-0.09375,0.125,0.03125,0.0,0.0,0.0
1696287329086,0.05859375,-0.044921875,0.9941406,-0.09375,-0.21875,0.09375,0.0,0.0,0.0
1696287329113,0.051757812,-0.04296875,0.9970703,-0.09375,-0.03125,-0.21875,0.0,0.0,0.0
1696287329146,0.044921875,-0.04296875,1.0,-0.25,-0.03125,-0.03125,0.0,0.0,0.0
1696287329295,0.05078125,-0.044921875,0.9863281,0.09375,-0.03125,0.03125,0.0,0.0,0.0
1696287329297,0.059570312,-0.032226562,1.0019531,-0.1875,0.0,-0.28125,0.0,0.0,0.0
1696287329298,0.05859375,-0.044921875,0.99902344,-0.03125,0.0,-0.09375,0.0,0.0,0.0
1696287329321,0.053710938,-0.03125,0.99609375,-0.09375,-0.21875,-0.09375,0.0,0.0,0.0
1696287329353,0.057617188,-0.040039062,0.99121094,0.21875,0.0625,0.09375,-13.1875,-33.125,-158.3125
1696287329381,0.049804688,-0.052734375,0.98828125,-0.125,-0.15625,-0.03125,0.0,0.0,0.0
1696287329443,0.05078125,-0.048828125,0.9921875,0.21875,0.3125,-0.09375,0.0,0.0,0.0
1696287329471,0.053710938,-0.048828125,1.0,-0.09375,-0.21875,-0.09375,0.0,0.0,0.0
1696287329502,0.049804688,-0.040039062,0.98828125,-0.1875,-0.09375,-0.09375,0.0,0.0,0.0
1696287329594,0.0625,-0.04296875,0.98828125,-0.03125,-0.21875,-0.09375,0.0,0.0,0.0
1696287329597,0.046875,-0.038085938,0.9970703,-0.125,-0.09375,0.03125,0.0,0.0,0.0
1696287329627,0.044921875,-0.041015625,0.9921875,-0.03125,0.0,0.15625,0.0,0.0,0.0
1696287329680,0.051757812,-0.04296875,0.99316406,-0.09375,0.0,-0.09375,0.0,0.0,0.0
1696287329709,0.0546875,-0.036132812,1.0048828,0.03125,-0.09375,-0.21875,0.0,0.0,0.0
1696287329744,0.048828125,-0.038085938,0.99121094,-0.09375,-0.15625,-0.03125,0.0,0.0,0.0
1696287329801,0.048828125,-0.034179688,0.9951172,0.09375,0.0625,0.03125,0.0,0.0,0.0
1696287329830,0.059570312,-0.037109375,1.0009766,-0.125,-0.03125,0.03125,-13.8125,-34.3125,-158.625
1696287329861,0.053710938,-0.0390625,1.0058594,-0.125,-0.15625,-0.03125,0.0,0.0,0.0
1696287329924,0.053710938,-0.033203125,0.98339844,-0.1875,-0.09375,-0.09375,0.0,0.0,0.0
1696287329950,0.056640625,-0.037109375,1.0048828,0.15625,0.0625,0.03125,0.0,0.0,0.0
1696287329984,0.0546875,-0.044921875,0.98828125,-0.4375,-0.15625,0.03125,0.0,0.0,0.0
1696287330043,0.059570312,-0.040039062,0.9921875,0.34375,0.375,-0.09375,0.0,0.0,0.0
1696287330071,0.056640625,-0.043945312,0.99121094,-0.125,-0.34375,0.03125,0.0,0.0,0.0
1696287330105,0.049804688,-0.04296875,1.0058594,-0.125,-0.03125,-0.03125,0.0,0.0,0.0
1696287330195,0.051757812,-0.037109375,1.0009766,-0.03125,-0.28125,-0.09375,0.0,0.0,0.0
1696287330200,0.05078125,-0.0390625,0.9873047,-0.1875,-0.03125,-0.09375,0.0,0.0,0.0
1696287330220,0.05859375,-0.04296875,0.9980469,-0.125,0.0,-0.09375,0.0,0.0,0.0
1696287330287,0.049804688,-0.046875,0.98828125,-0.03125,0.0,-0.15625,0.0,0.0,0.0
1696287330311,0.041992188,-0.038085938,1.0039062,0.03125,-0.15625,-0.09375,0.0,0.0,0.0
1696287330339,0.055664062,-0.047851562,1.0,-0.03125,0.0,-0.09375,-13.9375,-33.5625,-159.375
1696287330402,0.061523438,-0.0390625,0.99316406,-0.09375,0.0625,-0.09375,0.0,0.0,0.0
1696287330431,0.053710938,-0.032226562,1.0009766,0.03125,0.0625,-0.09375,0.0,0.0,0.0
1696287330463,0.05078125,-0.045898438,0.9951172,-0.1875,0.0625,-0.09375,0.0,0.0,0.0
1696287330524,0.05078125,-0.04296875,0.98828125,-0.09375,-0.28125,0.03125,0.0,0.0,0.0
1696287330550,0.053710938,-0.0390625,0.9951172,-0.03125,0.0,0.03125,0.0,0.0,0.0
1696287330581,0.0546875,-0.041992188,0.9824219,-0.25,-0.40625,0.09375,0.0,0.0,0.0
1696287330713,0.051757812,-0.038085938,1.0,0.53125,0.375,-0.09375,0.0,0.0,0.0
1696287330717,0.05078125,-0.0390625,0.98828125,0.03125,0.0,-0.15625,0.0,0.0,0.0
1696287330718,0.051757812,-0.03515625,0.98339844,-0.03125,0.25,-0.21875,0.0,0.0,0.0
1696287330763,0.053710938,-0.038085938,0.99609375,0.09375,0.0,-0.09375,0.0,0.0,0.0
1696287330791,0.059570312,-0.04296875,1.0048828,-0.03125,-0.21875,0.09375,0.0,0.0,0.0
1696287330826,0.048828125,-0.041992188,1.0166016,-0.09375,-0.09375,0.21875,-13.375,-35.5,-158.875
1696287330881,0.057617188,-0.0390625,0.99316406,-0.03125,0.125,0.03125,0.0,0.0,0.0
1696287330910,0.052734375,-0.036132812,1.0029297,-0.09375,-0.03125,-0.03125,0.0,0.0,0.0
1696287330942,0.047851562,-0.034179688,0.9873047,0.21875,-0.03125,0.03125,0.0,0.0,0.0
1696287331000,0.051757812,-0.037109375,1.0058594,0.09375,-0.03125,0.09375,0.0,0.0,0.0
1696287331034,0.057617188,-0.03515625,0.98535156,0.15625,0.125,-0.03125,0.0,0.0,0.0
1696287331061,0.053710938,-0.03125,0.9970703,-0.125,-0.15625,-0.09375,0.0,0.0,0.0
1696287331155,0.055664062,-0.0390625,0.9902344,-0.03125,0.125,-0.03125,0.0,0.0,0.0
1696287331159,0.052734375,-0.038085938,0.9921875,-0.3125,-0.21875,0.03125,0.0,0.0,0.0
1696287331181,0.048828125,-0.044921875,0.9921875,0.09375,-0.03125,0.21875,0.0,0.0,0.0
1696287331242,0.051757812,-0.041015625,1.0146484,0.09375,-0.21875,0.03125,0.0,0.0,0.0
1696287331273,0.0546875,-0.043945312,0.99121094,-0.03125,0.5,-0.15625,0.0,0.0,0.0
1696287331302,0.059570312,-0.038085938,0.9873047,-0.125,-0.15625,-0.09375,0.0,0.0,0.0
1696287331368,0.059570312,-0.0390625,1.0058594,0.40625,-0.03125,-0.03125,-15.125,-33.6875,-159.9375
1696287331391,0.052734375,-0.0390625,0.9785156,-0.125,-0.28125,0.03125,0.0,0.0,0.0
1696287331422,0.05078125,-0.05078125,0.98339844,-0.375,0.0,-0.28125,0.0,0.0,0.0
1696287331485,0.044921875,-0.0390625,1.0,0.09375,0.125,-0.09375,0.0,0.0,0.0
1696287331511,0.052734375,-0.0390625,1.0029297,-0.5625,0.125,-0.03125,0.0,0.0,0.0
1696287331545,0.047851562,-0.047851562,1.0019531,0.09375,0.1875,-0.03125,0.0,0.0,0.0
1696287331668,0.056640625,-0.043945312,0.99121094,0.28125,-0.21875,0.03125,0.0,0.0,0.0
1696287331672,0.049804688,-0.040039062,1.0087891,-0.03125,0.0,-0.03125,0.0,0.0,0.0
1696287331673,0.049804688,-0.045898438,1.0048828,0.03125,0.125,-0.09375,0.0,0.0,0.0
1696287331723,0.05078125,-0.03515625,1.0,-0.09375,-0.15625,0.03125,0.0,0.0,0.0
1696287331751,0.0546875,-0.045898438,0.99316406,-0.09375,-0.03125,-0.09375,0.0,0.0,0.0
1696287331781,0.055664062,-0.038085938,0.9970703,-0.125,-0.34375,0.09375,0.0,0.0,0.0
1696287331842,0.046875,-0.044921875,1.0146484,0.59375,0.125,0.09375,-13.0625,-34.3125,-157.5625
1696287331870,0.05859375,-0.043945312,0.9873047,-0.4375,-0.09375,-0.09375,0.0,0.0,0.0
1696287331902,0.0546875,-0.0390625,0.99902344,-0.03125,0.0,-0.15625,0.0,0.0,0.0
1696287332026,0.046875,-0.03125,1.0117188,0.34375,-0.15625,0.03125,0.0,0.0,0.0
1696287332030,0.056640625,-0.0390625,1.0029297,-0.5,-0.03125,-0.09375,0.0,0.0,0.0
1696287332032,0.046875,-0.038085938,1.0048828,0.15625,-0.03125,0.09375,0.0,0.0,0.0
1696287332114,0.05078125,-0.045898438,0.99121094,-0.125,0.0625,-0.09375,0.0,0.0,0.0
1696287332115,0.048828125,-0.047851562,1.0068359,-0.125,-0.03125,-0.03125,0.0,0.0,0.0
1696287332142,0.052734375,-0.034179688,0.9921875,0.34375,0.0,0.09375,0.0,0.0,0.0
1696287332205,0.051757812,-0.0390625,0.9902344,-0.3125,-0.21875,-0.15625,0.0,0.0,0.0
1696287332232,0.052734375,-0.0390625,0.9970703,0.15625,0.21875,0.03125,0.0,0.0,0.0
1696287332261,0.053710938,-0.05078125,0.9863281,-0.1875,-0.09375,-0.09375,0.0,0.0,0.0
1696287332320,0.049804688,-0.041992188,0.9980469,-0.1875,0.03125,0.03125,0.0,0.0,0.0
1696287332349,0.052734375,-0.037109375,0.99121094,0.09375,0.03125,0.15625,-13.8125,-34.3125,-158.875
1696287332380,0.060546875,-0.038085938,0.9980469,-0.25,-0.28125,0.15625,0.0,0.0,0.0
1696287332441,0.048828125,-0.044921875,1.0214844,0.90625,0.65625,0.03125,0.0,0.0,0.0
1696287332475,0.05859375,-0.0390625,1.0019531,-0.9375,-0.09375,-0.09375,0.0,0.0,0.0
1696287332503,0.05078125,-0.048828125,0.9980469,0.21875,0.03125,-0.03125,0.0,0.0,0.0
1696287332689,0.05078125,-0.041015625,0.9863281,-0.125,-0.59375,0.15625,0.0,0.0,0.0
1696287332690,0.056640625,-0.038085938,1.0058594,-0.5625,-0.09375,0.03125,0.0,0.0,0.0
1696287332691,0.0546875,-0.04296875,0.99316406,0.03125,0.21875,0.09375,0.0,0.0,0.0
1696287332692,0.057617188,-0.04296875,0.98339844,-0.625,0.09375,-0.03125,0.0,0.0,0.0
1696287332709,0.048828125,-0.043945312,1.0,-0.09375,-0.03125,-0.21875,0.0,0.0,0.0
1696287332745,0.048828125,-0.045898438,1.0136719,-0.1875,-0.09375,-0.03125,0.0,0.0,0.0
1696287332802,0.0546875,-0.03515625,0.99316406,-0.25,-0.15625,-0.03125,0.0,0.0,0.0
1696287332833,0.048828125,-0.041992188,0.98339844,-0.09375,-0.03125,-0.09375,-13.5,-34.625,-159.375
1696287332862,0.051757812,-0.037109375,0.98046875,-0.5,-0.03125,0.03125,0.0,0.0,0.0
1696287332923,0.055664062,-0.044921875,0.9980469,-0.3125,-0.03125,-0.09375,0.0,0.0,0.0
1696287332984,0.056640625,-0.05078125,1.0029297,0.03125,0.15625,-0.25,0.0,0.0,0.0
1696287332985,0.053710938,-0.044921875,0.99609375,-0.625,-0.40625,0.03125,0.0,0.0,0.0
1696287333041,0.0390625,-0.055664062,0.9941406,0.78125,0.21875,0.03125,0.0,0.0,0.0
1696287333073,0.0546875,-0.046875,0.99121094,-0.25,-0.40625,0.03125,0.0,0.0,0.0
1696287333103,0.05078125,-0.04296875,1.0097656,-0.09375,0.15625,-0.21875,0.0,0.0,0.0
1696287333161,0.049804688,-0.041015625,0.97558594,-0.1875,-0.28125,-0.03125,0.0,0.0,0.0
1696287333193,0.0546875,-0.040039062,0.99609375,-0.1875,-0.03125,0.03125,0.0,0.0,0.0
1696287333221,0.049804688,-0.046875,0.9980469,0.09375,0.21875,0.28125,0.0,0.0,0.0
1696287333284,0.056640625,-0.041992188,0.9970703,-0.09375,0.09375,-0.03125,0.0,0.0,0.0
1696287333314,0.05859375,-0.0546875,1.0058594,-0.09375,-0.21875,-0.21875,0.0,0.0,0.0
1696287333340,0.051757812,-0.041015625,1.0068359,-0.03125,0.15625,-0.03125,-13.8125,-32.9375,-158.875
1696287333406,0.046875,-0.05078125,0.99316406,-0.1875,-0.03125,-0.03125,0.0,0.0,0.0
1696287333432,0.044921875,-0.041992188,0.9892578,-0.03125,0.28125,-0.15625,0.0,0.0,0.0
1696287333461,0.057617188,-0.041992188,1.0058594,-0.03125,0.09375,-0.21875,0.0,0.0,0.0
1696287333598,0.0546875,-0.051757812,0.98535156,-0.125,-0.34375,-0.03125,0.0,0.0,0.0
1696287333599,0.0546875,-0.04296875,0.9951172,0.28125,0.03125,-0.09375,0.0,0.0,0.0
1696287333601,0.0546875,-0.037109375,0.99121094,-0.3125,-0.03125,-0.09375,0.0,0.0,0.0
1696287333646,0.060546875,-0.044921875,0.99316406,0.21875,0.28125,0.03125,0.0,0.0,0.0
1696287333671,0.048828125,-0.03515625,1.0058594,-0.03125,-0.21875,0.03125,0.0,0.0,0.0
1696287333701,0.0546875,-0.037109375,0.9892578,-0.09375,-0.28125,0.03125,0.0,0.0,0.0
1696287333795,0.05859375,-0.047851562,0.99609375,-0.03125,-0.15625,-0.03125,0.0,0.0,0.0
1696287333800,0.048828125,-0.046875,0.9873047,-0.125,-0.03125,0.03125,0.0,0.0,0.0
1696287333821,0.05078125,-0.05078125,0.99316406,0.03125,0.28125,-0.03125,-13.5,-34.1875,-159.375
1696287333911,0.0546875,-0.038085938,0.99902344,-0.25,0.03125,-0.03125,0.0,0.0,0.0
1696287333913,0.047851562,-0.051757812,0.9970703,0.15625,-0.09375,-0.03125,0.0,0.0,0.0
1696287333946,0.056640625,-0.034179688,1.0019531,-0.125,-0.09375,0.03125,0.0,0.0,0.0
1696287334006,0.049804688,-0.037109375,1.0009766,-0.03125,0.03125,0.03125,0.0,0.0,0.0
1696287334030,0.053710938,-0.041992188,1.0029297,-0.09375,-0.03125,0.03125,0.0,0.0,0.0
1696287334059,0.047851562,-0.04296875,0.9980469,-0.1875,-0.09375,-0.09375,0.0,0.0,0.0
1696287334120,0.053710938,-0.043945312,1.0,-0.1875,-0.15625,-0.03125,0.0,0.0,0.0
1696287334150,0.056640625,-0.040039062,0.99609375,0.03125,0.15625,0.09375,0.0,0.0,0.0
1696287334182,0.05078125,-0.046875,0.9951172,0.03125,0.03125,-0.03125,0.0,0.0,0.0
1696287334247,0.049804688,-0.041992188,1.0,-0.03125,0.28125,-0.25,0.0,0.0,0.0
1696287334270,0.053710938,-0.041992188,1.0009766,-0.03125,-0.15625,-0.03125,0.0,0.0,0.0
1696287334301,0.048828125,-0.046875,0.9902344,-0.125,0.03125,-0.03125,0.0,0.0,0.0
1696287334367,0.041992188,-0.041992188,1.0078125,-0.09375,-0.09375,0.09375,-13.0625,-33.6875,-158.625
1696287334391,0.059570312,-0.0390625,0.9902344,-0.03125,0.09375,0.03125,0.0,0.0,0.0
1696287334423,0.0546875,-0.038085938,0.99316406,-0.09375,0.09375,-0.03125,0.0,0.0,0.0
1696287334482,0.0546875,-0.049804688,0.9902344,-0.09375,-0.03125,-0.09375,0.0,0.0,0.0
1696287334511,0.059570312,-0.034179688,0.9921875,0.03125,-0.03125,-0.15625,0.0,0.0,0.0
1696287334540,0.056640625,-0.037109375,0.9980469,-0.1875,-0.21875,0.03125,0.0,0.0,0.0
1696287334602,0.049804688,-0.043945312,0.99316406,-0.03125,0.09375,0.09375,0.0,0.0,0.0
1696287334630,0.048828125,-0.046875,0.9970703,-0.125,-0.09375,0.03125,0.0,0.0,0.0
1696287334662,0.059570312,-0.052734375,0.9951172,-0.125,-0.15625,0.09375,0.0,0.0,0.0
1696287334725,0.047851562,-0.032226562,0.99121094,-0.09375,-0.09375,-0.15625,0.0,0.0,0.0
1696287334751,0.041015625,-0.046875,0.98339844,-0.1875,-0.09375,0.09375,0.0,0.0,0.0
1696287334782,0.053710938,-0.046875,0.99902344,-0.09375,-0.09375,-0.03125,0.0,0.0,0.0
1696287334846,0.0625,-0.041992188,0.99121094,0.09375,0.28125,-0.09375,-13.375,-34.0,-158.125
1696287334871,0.049804688,-0.044921875,0.9951172,-0.09375,-0.03125,-0.15625,0.0,0.0,0.0
1696287334901,0.045898438,-0.034179688,0.99121094,-0.09375,-0.15625,-0.09375,0.0,0.0,0.0
1696287334965,0.049804688,-0.045898438,1.0009766,0.09375,-0.21875,0.09375,0.0,0.0,0.0
1696287334993,0.0546875,-0.047851562,1.0097656,-0.1875,-0.15625,-0.03125,0.0,0.0,0.0
1696287335020,0.051757812,-0.045898438,0.9921875,-0.09375,0.28125,-0.03125,0.0,0.0,0.0
1696287335087,0.060546875,-0.041992188,0.9794922,-0.09375,-0.15625,-0.21875,0.0,0.0,0.0
1696287335111,0.043945312,-0.040039062,0.9921875,0.09375,0.09375,-0.09375,0.0,0.0,0.0
1696287335140,0.05859375,-0.041992188,0.99609375,0.03125,-0.21875,0.03125,0.0,0.0,0.0
1696287335205,0.049804688,-0.041992188,1.0078125,0.03125,0.03125,-0.09375,0.0,0.0,0.0
1696287335261,0.0546875,-0.0390625,1.0048828,-0.03125,0.03125,0.03125,0.0,0.0,0.0
1696287335264,0.048828125,-0.037109375,0.99316406,-0.25,-0.15625,0.09375,0.0,0.0,0.0
1696287335414,0.052734375,-0.037109375,0.9921875,-0.03125,0.03125,-0.15625,0.0,0.0,0.0
1696287335418,0.052734375,-0.05078125,0.9873047,-0.25,-0.28125,0.15625,-13.375,-33.25,-157.5625
1696287335420,0.05859375,-0.051757812,0.99902344,0.46875,0.21875,0.03125,0.0,0.0,0.0
1696287335422,0.055664062,-0.048828125,1.0039062,-0.03125,0.34375,0.03125,0.0,0.0,0.0
1696287335475,0.059570312,-0.045898438,1.0019531,0.46875,-0.15625,-0.09375,0.0,0.0,0.0
1696287335500,0.051757812,-0.029296875,0.99121094,0.65625,-0.21875,0.03125,0.0,0.0,0.0
1696287335532,0.044921875,-0.029296875,0.98828125,-0.1875,-0.46875,0.09375,0.0,0.0,0.0
1696287335596,0.051757812,-0.038085938,0.9902344,-0.03125,0.28125,-0.03125,0.0,0.0,0.0
1696287335620,0.0546875,-0.037109375,0.98535156,-0.03125,0.46875,0.15625,0.0,0.0,0.0
1696287335650,0.056640625,-0.038085938,0.9970703,-0.09375,-0.09375,0.21875,0.0,0.0,0.0
1696287335717,0.059570312,-0.038085938,0.9892578,0.21875,-0.15625,-0.03125,0.0,0.0,0.0
1696287335740,0.056640625,-0.043945312,0.99609375,-0.09375,-0.15625,-0.09375,0.0,0.0,0.0
1696287335769,0.059570312,-0.040039062,0.9873047,0.28125,0.21875,0.03125,0.0,0.0,0.0
1696287335863,0.056640625,-0.034179688,0.9921875,-0.09375,-0.15625,0.15625,-12.4375,-34.1875,-158.75
1696287335866,0.049804688,-0.038085938,0.9980469,-0.03125,0.09375,0.15625,0.0,0.0,0.0
1696287335897,0.051757812,-0.034179688,1.0166016,-0.03125,0.09375,0.03125,0.0,0.0,0.0
1696287335951,0.0625,-0.04296875,1.0107422,-0.1875,-0.59375,0.21875,0.0,0.0,0.0
1696287335982,0.051757812,-0.046875,1.0087891,0.34375,0.8125,-0.15625,0.0,0.0,0.0
1696287336012,0.0546875,-0.041992188,0.99316406,-0.6875,-0.21875,-0.09375,0.0,0.0,0.0
1696287336075,0.055664062,-0.038085938,1.0048828,0.28125,0.21875,-0.15625,0.0,0.0,0.0
1696287336101,0.047851562,-0.037109375,1.0048828,0.0,-0.28125,0.25,0.0,0.0,0.0
1696287336132,0.05078125,-0.040039062,0.9980469,-0.34375,-0.21875,0.0625,0.0,0.0,0.0
1696287336191,0.049804688,-0.040039062,1.0019531,0.0625,0.28125,-0.0625,0.0,0.0,0.0
1696287336221,0.052734375,-0.046875,0.9941406,-0.46875,0.15625,-0.125,0.0,0.0,0.0
1696287336251,0.052734375,-0.05078125,0.9941406,0.1875,0.21875,0.0,0.0,0.0,0.0
1696287336346,0.057617188,-0.044921875,0.9873047,-0.125,-0.34375,0.0625,0.0,0.0,0.0
1696287336370,0.046875,-0.041015625,0.9902344,0.0,-0.03125,-0.0625,-12.625,-32.6875,-159.9375
1696287336372,0.0546875,-0.047851562,0.9951172,0.0,-0.09375,-0.25,0.0,0.0,0.0
1696287336464,0.055664062,-0.041015625,0.9951172,-0.25,0.03125,-0.0625,0.0,0.0,0.0
1696287336465,0.057617188,-0.045898438,0.9921875,0.0,0.09375,0.0,0.0,0.0,0.0
1696287336491,0.057617188,-0.036132812,0.99121094,-0.1875,-0.46875,0.125,0.0,0.0,0.0
1696287336553,0.049804688,-0.044921875,1.0097656,0.5,0.59375,-0.0625,0.0,0.0,0.0
1696287336582,0.056640625,-0.045898438,0.9902344,-0.71875,-0.03125,-0.1875,0.0,0.0,0.0
1696287336612,0.049804688,-0.028320312,0.9970703,0.3125,0.15625,-0.3125,0.0,0.0,0.0
1696287336675,0.044921875,-0.038085938,0.99316406,0.0,-0.40625,0.25,0.0,0.0,0.0
1696287336701,0.05078125,-0.045898438,0.9873047,-0.59375,0.15625,-0.0625,0.0,0.0,0.0
1696287336732,0.056640625,-0.04296875,0.9892578,0.3125,0.09375,0.0625,0.0,0.0,0.0
1696287336799,0.057617188,-0.041015625,1.0117188,-0.71875,0.15625,-0.125,0.0,0.0,0.0
1696287336824,0.047851562,-0.034179688,0.9902344,0.0625,-0.09375,-0.1875,-14.25,-33.5625,-157.375
1696287336852,0.05859375,-0.041992188,0.9970703,-0.125,-0.09375,-0.125,0.0,0.0,0.0
1696287336914,0.059570312,-0.040039062,1.0097656,-0.28125,-0.46875,0.125,0.0,0.0,0.0
1696287336942,0.0546875,-0.037109375,0.9921875,-0.0625,0.15625,-0.1875,0.0,0.0,0.0
1696287336973,0.049804688,-0.030273438,0.99316406,-0.46875,-0.03125,-0.0625,0.0,0.0,0.0
1696287337034,0.056640625,-0.037109375,1.0039062,0.0,0.28125,-0.0625,0.0,0.0,0.0
1696287337061,0.056640625,-0.0390625,0.9921875,-0.25,-0.6875,0.125,0.0,0.0,0.0
1696287337091,0.05859375,-0.045898438,1.0087891,0.375,0.40625,0.0,0.0,0.0,0.0
1696287337153,0.049804688,-0.040039062,1.0117188,-0.71875,-0.15625,-0.25,0.0,0.0,0.0
1696287337181,0.040039062,-0.0390625,0.9902344,-0.0625,0.34375,-0.3125,0.0,0.0,0.0
1696287337211,0.051757812,-0.045898438,1.0058594,0.0625,-0.40625,0.125,0.0,0.0,0.0
1696287337305,0.055664062,-0.03515625,1.0097656,-0.40625,-0.09375,-0.1875,0.0,0.0,0.0
1696287337306,0.048828125,-0.041015625,0.9951172,-0.25,-0.09375,0.0,0.0,0.0,0.0
1696287337330,0.052734375,-0.046875,0.9902344,-0.25,0.28125,-0.1875,-14.25,-31.75,-159.0625
1696287337456,0.05078125,-0.047851562,0.9814453,-0.125,-0.21875,0.0,0.0,0.0,0.0
1696287337457,0.05859375,-0.048828125,0.9941406,-0.125,-0.15625,-0.125,0.0,0.0,0.0
1696287337458,0.053710938,-0.047851562,1.0019531,-0.28125,-0.15625,0.0,0.0,0.0,0.0
1696287337544,0.051757812,-0.041015625,0.9951172,0.0,0.28125,-0.125,0.0,0.0,0.0
1696287337545,0.053710938,-0.038085938,1.0039062,-0.28125,-0.21875,0.0,0.0,0.0,0.0
1696287337571,0.05078125,-0.043945312,1.0048828,-0.0625,0.09375,-0.0625,0.0,0.0,0.0
1696287337663,0.051757812,-0.044921875,0.9746094,-0.25,-0.34375,0.0,0.0,0.0,0.0
1696287337665,0.05078125,-0.030273438,1.0166016,0.125,0.21875,-0.1875,0.0,0.0,0.0
1696287337691,0.057617188,-0.046875,0.99316406,-0.25,0.09375,0.125,0.0,0.0,0.0
1696287337782,0.046875,-0.048828125,1.0107422,0.0,0.09375,-0.1875,0.0,0.0,0.0
1696287337784,0.05078125,-0.040039062,0.99316406,-0.34375,-0.28125,-0.0625,0.0,0.0,0.0
1696287337811,0.0625,-0.041992188,1.0009766,-0.0625,0.03125,-0.0625,-14.875,-32.9375,-158.125
1696287337903,0.05859375,-0.044921875,0.9863281,-0.25,-0.09375,-0.125,0.0,0.0,0.0
1696287337910,0.056640625,-0.037109375,0.99121094,-0.0625,0.15625,-0.0625,0.0,0.0,0.0
1696287337930,0.056640625,-0.047851562,0.9921875,-0.125,-0.09375,0.0,0.0,0.0,0.0
1696287337991,0.0546875,-0.03125,1.0019531,-0.0625,0.03125,0.0,0.0,0.0,0.0
1696287338021,0.055664062,-0.044921875,1.0009766,-0.125,-0.15625,0.0625,0.0,0.0,0.0
1696287338051,0.046875,-0.043945312,0.9951172,-0.0625,0.03125,0.0,0.0,0.0,0.0
1696287338114,0.0546875,-0.044921875,0.98339844,-0.125,-0.15625,-0.0625,0.0,0.0,0.0
1696287338143,0.0546875,-0.044921875,0.9970703,-0.1875,0.03125,-0.0625,0.0,0.0,0.0
1696287338169,0.051757812,-0.036132812,0.99609375,-0.0625,0.03125,0.0625,0.0,0.0,0.0
1696287338233,0.053710938,-0.0390625,0.9785156,-0.0625,0.15625,0.0,0.0,0.0,0.0
1696287338261,0.0546875,-0.041015625,0.9941406,0.0,0.03125,-0.0625,0.0,0.0,0.0
1696287338293,0.040039062,-0.038085938,1.0048828,0.0,-0.09375,0.0,0.0,0.0,0.0
1696287338351,0.045898438,-0.037109375,1.0,-0.25,0.03125,-0.1875,-12.875,-34.1875,-159.375
1696287338382,0.05078125,-0.0390625,1.0009766,-0.0625,0.21875,0.0625,0.0,0.0,0.0
1696287338411,0.056640625,-0.0390625,1.0009766,-0.125,-0.09375,0.125,0.0,0.0,0.0
1696287338472,0.055664062,-0.051757812,0.99609375,-0.125,0.21875,-0.0625,0.0,0.0,0.0
1696287338500,0.0546875,-0.047851562,1.0107422,-0.125,-0.03125,-0.0625,0.0,0.0,0.0
1696287338533,0.060546875,-0.047851562,0.9970703,0.0,0.09375,-0.1875,0.0,0.0,0.0
1696287338593,0.059570312,-0.044921875,0.99609375,-0.1875,-0.28125,0.0,0.0,0.0,0.0
1696287338624,0.046875,-0.036132812,1.0029297,0.0625,0.28125,0.0,0.0,0.0,0.0
1696287338653,0.053710938,-0.041015625,0.9951172,-0.28125,-0.03125,0.0,0.0,0.0,0.0
1696287338773,0.053710938,-0.040039062,0.99121094,-0.125,-0.15625,-0.125,0.0,0.0,0.0
1696287338780,0.0546875,-0.04296875,0.98535156,0.0625,-0.03125,0.0,0.0,0.0,0.0
1696287338781,0.05078125,-0.041015625,0.99316406,-0.34375,-0.15625,-0.0625,0.0,0.0,0.0
1696287338865,0.053710938,-0.04296875,0.9873047,0.3125,0.46875,-0.0625,-15.125,-34.0,-159.9375
1696287338868,0.056640625,-0.041015625,0.984375,-0.1875,-0.28125,-0.0625,0.0,0.0,0.0
1696287338890,0.053710938,-0.04296875,0.9794922,-0.0625,0.09375,-0.125,0.0,0.0,0.0
1696287338953,0.047851562,-0.04296875,0.984375,-0.125,-0.15625,0.0625,0.0,0.0,0.0
1696287338983,0.0546875,-0.036132812,1.0,-0.0625,0.09375,0.0625,0.0,0.0,0.0
1696287339010,0.046875,-0.038085938,1.0019531,-0.125,-0.03125,-0.0625,0.0,0.0,0.0
1696287339073,0.05859375,-0.052734375,1.0,-0.125,0.15625,0.0,0.0,0.0,0.0
1696287339103,0.061523438,-0.041992188,0.99316406,-0.125,-0.03125,-0.0625,0.0,0.0,0.0
1696287339131,0.053710938,-0.041992188,1.0009766,0.0,0.03125,-0.125,0.0,0.0,0.0
1696287339225,0.047851562,-0.0390625,0.98339844,-0.125,-0.09375,-0.0625,0.0,0.0,0.0
1696287339231,0.048828125,-0.046875,0.9921875,-0.0625,0.09375,0.0,0.0,0.0,0.0
1696287339257,0.0546875,-0.044921875,1.0097656,-0.25,-0.09375,-0.125,0.0,0.0,0.0
1696287339345,0.05078125,-0.045898438,0.9980469,-0.1875,-0.09375,-0.125,0.0,0.0,0.0
1696287339371,0.049804688,-0.047851562,1.0019531,-0.0625,0.09375,0.0,-13.5,-35.6875,-159.0625
1696287339373,0.056640625,-0.043945312,1.0,-0.125,-0.34375,0.0,0.0,0.0,0.0
1696287339435,0.048828125,-0.04296875,1.0078125,0.1875,0.28125,-0.125,0.0,0.0,0.0
1696287339460,0.057617188,-0.043945312,1.0029297,-0.125,-0.21875,-0.0625,0.0,0.0,0.0
1696287339489,0.053710938,-0.0234375,1.0058594,-0.125,0.03125,-0.125,0.0,0.0,0.0
1696287339552,0.048828125,-0.0390625,0.99316406,0.0,-0.28125,0.0625,0.0,0.0,0.0
1696287339581,0.05078125,-0.044921875,1.0019531,-0.28125,-0.09375,0.0,0.0,0.0,0.0
1696287339612,0.052734375,-0.041992188,1.0019531,-0.0625,0.21875,0.0625,0.0,0.0,0.0
1696287339740,0.056640625,-0.047851562,0.99121094,-0.0625,0.09375,-0.125,0.0,0.0,0.0
1696287339743,0.051757812,-0.046875,0.9980469,0.25,0.03125,-0.0625,0.0,0.0,0.0
1696287339745,0.047851562,-0.045898438,0.9970703,-0.125,-0.15625,0.0,0.0,0.0,0.0
1696287339821,0.053710938,-0.040039062,1.0,-0.0625,-0.09375,0.0,0.0,0.0,0.0
1696287339822,0.051757812,-0.038085938,1.0058594,-0.0625,0.09375,-0.0625,-14.375,-34.75,-158.625
1696287339855,0.047851562,-0.05078125,1.0029297,-0.1875,0.09375,0.0,0.0,0.0,0.0
1696287339912,0.052734375,-0.041992188,1.0068359,-0.0625,-0.09375,0.0625,0.0,0.0,0.0
1696287339942,0.049804688,-0.040039062,0.9892578,-0.0625,-0.03125,0.1875,0.0,0.0,0.0
1696287339972,0.045898438,-0.040039062,0.99316406,0.0,-0.03125,0.0,0.0,0.0,0.0
1696287340031,0.059570312,-0.038085938,0.99316406,0.375,0.53125,-0.125,0.0,0.0,0.0
1696287340065,0.056640625,-0.043945312,0.9980469,-0.28125,-0.28125,-0.125,0.0,0.0,0.0
1696287340092,0.059570312,-0.043945312,1.0009766,0.125,0.03125,-0.125,0.0,0.0,0.0
1696287340167,0.052734375,-0.03515625,0.9873047,0.0,-0.40625,0.1875,0.0,0.0,0.0
1696287340181,0.041992188,-0.041992188,0.9902344,-0.40625,-0.03125,0.0,0.0,0.0,0.0
1696287340210,0.05078125,-0.036132812,1.0029297,0.1875,0.40625,0.0,0.0,0.0,0.0
1696287340275,0.0546875,-0.045898438,0.99316406,-0.25,0.09375,0.0,0.0,0.0,0.0
1696287340302,0.052734375,-0.043945312,0.98828125,0.3125,0.03125,-0.125,0.0,0.0,0.0
1696287340330,0.051757812,-0.03515625,0.9921875,-0.0625,-0.15625,-0.0625,-14.375,-34.0,-158.875
1696287340395,0.051757812,-0.037109375,0.9970703,-0.125,0.03125,0.125,0.0,0.0,0.0
1696287340422,0.051757812,-0.037109375,1.0068359,-0.0625,0.15625,-0.0625,0.0,0.0,0.0
1696287340454,0.061523438,-0.043945312,0.99316406,-0.125,-0.09375,0.0625,0.0,0.0,0.0
1696287340513,0.051757812,-0.03515625,1.0107422,0.0625,-0.03125,-0.0625,0.0,0.0,0.0
1696287340543,0.053710938,-0.036132812,1.0,-0.28125,-0.5,0.1875,0.0,0.0,0.0
1696287340573,0.0546875,-0.044921875,1.0,0.3125,0.46875,0.0,0.0,0.0,0.0
1696287340723,0.051757812,-0.048828125,0.99609375,-0.1875,0.21875,-0.125,0.0,0.0,0.0
1696287340725,0.056640625,-0.036132812,0.9863281,0.0,0.03125,-0.125,0.0,0.0,0.0
1696287340727,0.041015625,-0.041992188,0.9941406,0.375,-0.21875,0.0,0.0,0.0,0.0
1696287340815,0.057617188,-0.032226562,1.0029297,-0.59375,-0.28125,0.0625,0.0,0.0,0.0
1696287340820,0.057617188,-0.0390625,1.0009766,0.0625,0.28125,0.0625,0.0,0.0,0.0
1696287340822,0.053710938,-0.048828125,1.0097656,-0.34375,0.21875,0.0625,-14.375,-32.9375,-159.1875
1696287340872,0.056640625,-0.05078125,1.0019531,-0.125,0.03125,-0.125,0.0,0.0,0.0
1696287340901,0.05859375,-0.048828125,0.9902344,0.0625,-0.09375,-0.25,0.0,0.0,0.0
1696287340932,0.0546875,-0.03515625,1.0019531,-0.1875,-0.40625,0.0,0.0,0.0,0.0
1696287340994,0.060546875,-0.040039062,1.0117188,0.0,0.09375,-0.0625,0.0,0.0,0.0
1696287341022,0.06347656,-0.036132812,1.0,-0.34375,-0.03125,-0.125,0.0,0.0,0.0
1696287341051,0.052734375,-0.043945312,0.99316406,-0.25,0.09375,0.0,0.0,0.0,0.0
1696287341179,0.05078125,-0.047851562,0.9941406,-0.125,-0.09375,0.125,0.0,0.0,0.0
1696287341181,0.056640625,-0.045898438,0.99121094,-0.1875,-0.40625,0.0,0.0,0.0,0.0
1696287341183,0.0546875,-0.041992188,1.0029297,0.375,0.53125,-0.125,0.0,0.0,0.0
1696287341231,0.049804688,-0.037109375,0.9863281,-0.59375,-0.09375,-0.25,0.0,0.0,0.0
1696287341260,0.0546875,-0.04296875,1.0058594,0.25,0.09375,-0.125,0.0,0.0,0.0
1696287341291,0.051757812,-0.047851562,0.9970703,-0.1875,-0.40625,0.0625,0.0,0.0,0.0
1696287341353,0.05859375,-0.043945312,0.99902344,-0.46875,0.03125,0.0625,-13.8125,-34.0,-159.1875
1696287341381,0.0546875,-0.047851562,0.99121094,-0.125,0.09375,0.0,0.0,0.0,0.0
1696287341413,0.0625,-0.040039062,0.99121094,-0.46875,-0.03125,-0.25,0.0,0.0,0.0
1696287341473,0.053710938,-0.043945312,1.0068359,-0.0625,0.09375,-0.1875,0.0,0.0,0.0
1696287341501,0.056640625,-0.043945312,1.0078125,0.0,-0.34375,0.125,0.0,0.0,0.0
1696287341531,0.051757812,-0.041015625,0.98535156,-0.125,-0.09375,-0.1875,0.0,0.0,0.0
1696287341589,0.052734375,-0.037109375,1.0009766,-0.125,0.03125,-0.1875,0.0,0.0,0.0
1696287341622,0.051757812,-0.038085938,0.9902344,-0.1875,-0.03125,-0.125,0.0,0.0,0.0
1696287341652,0.048828125,-0.037109375,1.0087891,-0.125,-0.09375,-0.0625,0.0,0.0,0.0
1696287341713,0.05859375,-0.036132812,0.98046875,-0.40625,-0.21875,-0.0625,0.0,0.0,0.0
1696287341743,0.055664062,-0.040039062,1.0058594,0.1875,0.15625,0.0,0.0,0.0,0.0
1696287341776,0.05078125,-0.03515625,0.99316406,-0.125,0.21875,-0.125,0.0,0.0,0.0
1696287341834,0.051757812,-0.04296875,1.0,-0.0625,-0.15625,-0.25,-12.4375,-33.5625,-159.8125
1696287341860,0.060546875,-0.041015625,0.9902344,-0.25,-0.15625,-0.0625,0.0,0.0,0.0
1696287341892,0.055664062,-0.0390625,0.98828125,-0.125,-0.03125,-0.0625,0.0,0.0,0.0
1696287341951,0.057617188,-0.049804688,0.9892578,-0.125,-0.03125,0.125,0.0,0.0,0.0
1696287341981,0.05078125,-0.047851562,0.99609375,-0.1875,0.28125,-0.25,0.0,0.0,0.0
1696287342013,0.056640625,-0.03515625,1.0019531,-0.1875,-0.09375,0.0625,0.0,0.0,0.0
1696287342162,0.049804688,-0.043945312,0.99121094,0.1875,0.15625,-0.25,0.0,0.0,0.0
1696287342165,0.05078125,-0.04296875,1.0029297,-0.25,-0.21875,0.0,0.0,0.0,0.0
1696287342166,0.044921875,-0.043945312,1.0009766,-0.0625,0.15625,0.0,0.0,0.0,0.0
1696287342189,0.060546875,-0.038085938,0.9970703,-0.25,-0.03125,-0.125,0.0,0.0,0.0
1696287342220,0.0546875,-0.041992188,1.0019531,-0.125,-0.28125,-0.125,0.0,0.0,0.0
1696287342249,0.05078125,-0.047851562,1.0,0.0625,0.09375,0.0625,0.0,0.0,0.0
1696287342311,0.0546875,-0.048828125,0.98828125,-0.46875,-0.46875,0.0,0.0,0.0,0.0
1696287342342,0.04296875,-0.043945312,1.0058594,0.3125,0.34375,0.0625,-14.25,-33.5625,-158.3125
1696287342372,0.053710938,-0.030273438,0.9921875,-0.125,-0.21875,0.0,0.0,0.0,0.0
1696287342432,0.0546875,-0.041992188,0.99609375,-0.34375,-0.09375,-0.125,0.0,0.0,0.0
1696287342460,0.05078125,-0.043945312,0.99316406,0.0,-0.28125,0.0,0.0,0.0,0.0
1696287342492,0.051757812,-0.037109375,0.9970703,-0.25,0.03125,0.0625,0.0,0.0,0.0
1696287342550,0.051757812,-0.045898438,0.99902344,-0.0625,-0.15625,0.0,0.0,0.0,0.0
1696287342583,0.055664062,-0.038085938,0.99316406,-0.28125,0.09375,-0.125,0.0,0.0,0.0
1696287342609,0.05859375,-0.036132812,0.9921875,0.0,-0.03125,-0.125,0.0,0.0,0.0
1696287342670,0.059570312,-0.041015625,1.0,-0.1875,-0.15625,0.0,0.0,0.0,0.0
1696287342702,0.051757812,-0.046875,0.9951172,-0.1875,-0.09375,-0.0625,0.0,0.0,0.0
1696287342733,0.055664062,-0.045898438,1.0009766,-0.0625,0.09375,0.0,0.0,0.0,0.0
1696287342790,0.0625,-0.046875,1.0058594,-0.125,-0.15625,0.0,0.0,0.0,0.0
1696287342821,0.0546875,-0.05078125,0.99316406,-0.125,-0.09375,-0.125,0.0,0.0,0.0
1696287342853,0.047851562,-0.041992188,0.9941406,-0.0625,0.28125,-0.0625,-13.5,-33.125,-158.0
1696287342910,0.043945312,-0.041015625,0.99121094,-0.0625,-0.09375,0.0,0.0,0.0,0.0
1696287342942,0.05859375,-0.041015625,0.98339844,0.125,0.03125,-0.125,0.0,0.0,0.0
1696287342976,0.059570312,-0.041015625,1.0087891,0.0,-0.21875,0.0,0.0,0.0,0.0
1696287343033,0.057617188,-0.038085938,0.9873047,-0.28125,0.03125,-0.125,0.0,0.0,0.0
1696287343061,0.046875,-0.048828125,0.9902344,0.0,-0.09375,0.0,0.0,0.0,0.0
1696287343091,0.052734375,-0.041992188,0.99316406,-0.28125,-0.15625,0.0625,0.0,0.0,0.0
1696287343220,0.05078125,-0.034179688,1.0097656,-0.125,0.09375,-0.125,0.0,0.0,0.0
1696287343223,0.05859375,-0.040039062,0.9902344,-0.1875,-0.03125,-0.0625,0.0,0.0,0.0
1696287343224,0.048828125,-0.045898438,1.0058594,0.0625,-0.03125,-0.0625,0.0,0.0,0.0
1696287343274,0.0546875,-0.0390625,1.0,-0.1875,-0.09375,0.0,0.0,0.0,0.0
1696287343301,0.0625,-0.037109375,0.9873047,-0.125,-0.09375,0.0625,0.0,0.0,0.0
1696287343332,0.059570312,-0.037109375,0.9892578,-0.1875,-0.03125,-0.0625,-15.125,-33.6875,-158.125
1696287343394,0.046875,-0.040039062,0.9970703,-0.25,-0.15625,-0.125,0.0,0.0,0.0
1696287343426,0.05859375,-0.048828125,0.99316406,0.0,0.03125,-0.0625,0.0,0.0,0.0
1696287343450,0.04296875,-0.041015625,0.9902344,-0.28125,-0.34375,0.0,0.0,0.0,0.0
1696287343510,0.0625,-0.045898438,0.99121094,0.25,0.28125,-0.1875,0.0,0.0,0.0
1696287343542,0.045898438,-0.036132812,0.9951172,-0.28125,-0.09375,-0.0625,0.0,0.0,0.0
1696287343573,0.046875,-0.041992188,1.0175781,-0.0625,0.09375,-0.0625,0.0,0.0,0.0
1696287343667,0.049804688,-0.04296875,0.9707031,-0.0625,0.09375,-0.125,0.0,0.0,0.0
1696287343669,0.057617188,-0.037109375,0.99609375,-0.125,-0.03125,-0.0625,0.0,0.0,0.0
1696287343690,0.044921875,-0.04296875,1.0078125,-0.125,-0.09375,0.0,0.0,0.0,0.0
1696287343783,0.052734375,-0.040039062,0.9951172,-0.25,0.15625,-0.0625,0.0,0.0,0.0
1696287343787,0.049804688,-0.040039062,0.9980469,0.0625,0.03125,0.0625,0.0,0.0,0.0
1696287343810,0.052734375,-0.037109375,1.0019531,0.0,-0.03125,-0.0625,0.0,0.0,0.0
1696287343871,0.057617188,-0.043945312,0.9873047,-0.03125,-0.0625,-0.03125,-13.1875,-32.8125,-158.75
1696287343902,0.056640625,-0.041992188,0.99121094,0.09375,0.15625,-0.03125,0.0,0.0,0.0
1696287343931,0.051757812,-0.040039062,0.9941406,-0.15625,0.15625,0.09375,0.0,0.0,0.0
1696287343961,0.057617188,-0.045898438,1.0,-0.09375,-0.125,-0.09375,0.0,0.0,0.0
1696287344056,0.047851562,-0.046875,1.0058594,0.03125,0.15625,0.03125,0.0,0.0,0.0
1696287344058,0.051757812,-0.036132812,0.9951172,-0.09375,-0.375,0.03125,0.0,0.0,0.0
1696287344082,0.052734375,-0.040039062,0.99902344,0.09375,0.40625,-0.28125,0.0,0.0,0.0
1696287344147,0.047851562,-0.03515625,0.9951172,-0.03125,-0.0625,-0.09375,0.0,0.0,0.0
1696287344170,0.060546875,-0.041015625,0.9902344,0.03125,0.15625,-0.03125,0.0,0.0,0.0
1696287344204,0.0625,-0.036132812,0.9941406,0.15625,0.0,0.09375,0.0,0.0,0.0
1696287344260,0.04296875,-0.047851562,0.99609375,-0.09375,-0.0625,0.09375,0.0,0.0,0.0
1696287344294,0.048828125,-0.04296875,0.99121094,0.03125,0.21875,-0.03125,0.0,0.0,0.0
1696287344388,0.056640625,-0.041015625,1.0,0.28125,-0.0625,0.03125,-12.625,-34.75,-158.125
1696287344389,0.06542969,-0.04296875,1.0009766,0.28125,0.0,0.09375,0.0,0.0,0.0
1696287344410,0.045898438,-0.04296875,0.99121094,0.03125,-0.0625,-0.15625,0.0,0.0,0.0
1696287344442,0.056640625,-0.04296875,0.9892578,-0.03125,0.21875,-0.03125,0.0,0.0,0.0
1696287344532,0.05859375,-0.043945312,1.0039062,0.15625,0.09375,0.03125,0.0,0.0,0.0
1696287344533,0.059570312,-0.041992188,1.0117188,-0.09375,-0.25,0.03125,0.0,0.0,0.0
1696287344560,0.060546875,-0.033203125,0.9941406,0.15625,0.09375,0.15625,0.0,0.0,0.0
1696287344655,0.059570312,-0.049804688,0.9902344,-0.28125,-0.4375,0.15625,0.0,0.0,0.0
1696287344657,0.05078125,-0.046875,1.0107422,0.5625,0.46875,0.09375,0.0,0.0,0.0
1696287344682,0.049804688,-0.038085938,0.9921875,-0.21875,0.09375,-0.03125,0.0,0.0,0.0
1696287344746,0.05078125,-0.045898438,0.984375,0.28125,0.0,-0.21875,0.0,0.0,0.0
1696287344773,0.048828125,-0.0390625,1.0058594,0.40625,0.0,0.09375,0.0,0.0,0.0
1696287344800,0.05859375,-0.03515625,0.9970703,-0.15625,-0.3125,0.15625,0.0,0.0,0.0
1696287344862,0.052734375,-0.037109375,1.0048828,0.15625,0.40625,-0.03125,-14.6875,-33.875,-159.8125
1696287344893,0.061523438,-0.04296875,0.9951172,-0.09375,0.03125,0.03125,0.0,0.0,0.0
1696287344923,0.055664062,-0.041992188,0.9814453,-0.15625,0.21875,-0.03125,0.0,0.0,0.0
1696287344982,0.043945312,-0.045898438,0.9863281,0.5625,-0.25,0.03125,0.0,0.0,0.0
1696287345011,0.05078125,-0.041015625,1.0078125,0.03125,-0.25,0.03125,0.0,0.0,0.0
1696287345043,0.052734375,-0.034179688,1.0029297,0.15625,0.15625,0.03125,0.0,0.0,0.0
1696287345132,0.056640625,-0.037109375,0.9814453,0.03125,0.03125,-0.15625,0.0,0.0,0.0
1696287345133,0.047851562,-0.036132812,0.9873047,-0.15625,-0.0625,-0.09375,0.0,0.0,0.0
1696287345161,0.057617188,-0.045898438,0.98535156,-0.03125,-0.0625,0.21875,0.0,0.0,0.0
1696287345230,0.053710938,-0.048828125,0.9873047,0.21875,-0.125,0.28125,0.0,0.0,0.0
1696287345252,0.059570312,-0.041992188,0.9902344,0.28125,0.53125,-0.09375,0.0,0.0,0.0
1696287345281,0.048828125,-0.038085938,0.9970703,-0.03125,-0.125,-0.09375,0.0,0.0,0.0
1696287345345,0.051757812,-0.0390625,0.9980469,0.40625,-0.125,-0.03125,-14.875,-32.9375,-158.875
1696287345372,0.049804688,-0.041015625,0.9873047,-0.34375,-0.3125,0.03125,0.0,0.0,0.0
1696287345400,0.059570312,-0.040039062,0.9980469,-0.03125,0.03125,0.09375,0.0,0.0,0.0
1696287345461,0.056640625,-0.040039062,0.9951172,-0.03125,0.21875,-0.03125,0.0,0.0,0.0
1696287345490,0.055664062,-0.037109375,0.9951172,-0.21875,-0.0625,-0.09375,0.0,0.0,0.0
1696287345522,0.055664062,-0.044921875,0.9980469,0.34375,0.15625,-0.09375,0.0,0.0,0.0
1696287345585,0.046875,-0.040039062,0.9941406,-0.09375,-0.1875,-0.03125,0.0,0.0,0.0
1696287345609,0.06542969,-0.043945312,0.99121094,0.09375,0.15625,-0.09375,0.0,0.0,0.0
1696287345640,0.059570312,-0.037109375,0.9921875,-0.09375,-0.125,-0.09375,0.0,0.0,0.0
1696287345705,0.041015625,-0.037109375,0.9970703,-0.09375,0.09375,-0.03125,0.0,0.0,0.0
1696287345732,0.05859375,-0.0390625,0.984375,-0.15625,-0.3125,0.03125,0.0,0.0,0.0
1696287345762,0.05078125,-0.040039062,1.0009766,0.28125,0.0,0.09375,0.0,0.0,0.0
1696287345854,0.061523438,-0.04296875,0.9921875,-0.03125,0.21875,-0.09375,0.0,0.0,0.0
1696287345856,0.05078125,-0.046875,1.0019531,-0.03125,-0.125,-0.15625,-13.375,-34.75,-159.9375
1696287345883,0.053710938,-0.03515625,1.0126953,0.34375,-0.125,-0.09375,0.0,0.0,0.0
1696287345946,0.051757812,-0.038085938,1.0,-0.34375,-0.125,-0.03125,0.0,0.0,0.0
1696287345974,0.0546875,-0.038085938,1.0009766,-0.03125,0.0,0.03125,0.0,0.0,0.0
1696287346004,0.044921875,-0.043945312,0.99902344,-0.03125,0.21875,0.03125,0.0,0.0,0.0
1696287346061,0.044921875,-0.04296875,1.0,-0.28125,-0.125,-0.09375,0.0,0.0,0.0
1696287346091,0.055664062,-0.044921875,0.99316406,0.28125,0.21875,-0.09375,0.0,0.0,0.0
1696287346123,0.0546875,-0.036132812,0.9970703,-0.03125,-0.375,0.03125,0.0,0.0,0.0
1696287346183,0.052734375,-0.032226562,0.99121094,0.09375,0.03125,-0.15625,0.0,0.0,0.0
1696287346214,0.05859375,-0.034179688,1.0087891,-0.03125,-0.25,-0.09375,0.0,0.0,0.0
1696287346243,0.053710938,-0.048828125,0.99316406,-0.28125,0.0,0.03125,0.0,0.0,0.0
1696287346303,0.05859375,-0.045898438,0.99609375,-0.15625,-0.3125,-0.03125,0.0,0.0,0.0
1696287346332,0.0546875,-0.052734375,0.99121094,0.03125,-0.1875,0.15625,-14.25,-32.8125,-158.0
1696287346362,0.061523438,-0.043945312,1.0029297,0.03125,0.21875,-0.21875,0.0,0.0,0.0
1696287346512,0.049804688,-0.046875,0.9794922,-0.28125,-0.0625,-0.28125,0.0,0.0,0.0
1696287346515,0.064453125,-0.038085938,1.0058594,-0.03125,-0.125,-0.03125,0.0,0.0,0.0
1696287346517,0.051757812,-0.04296875,0.984375,-0.09375,-0.375,0.09375,0.0,0.0,0.0
1696287346541,0.048828125,-0.047851562,0.99609375,-0.21875,0.0,-0.15625,0.0,0.0,0.0
1696287346571,0.051757812,-0.045898438,0.9980469,0.03125,0.28125,-0.15625,0.0,0.0,0.0
1696287346603,0.0546875,-0.047851562,0.98535156,-0.53125,-0.1875,-0.09375,0.0,0.0,0.0
1696287346667,0.05078125,-0.049804688,0.9814453,0.15625,-0.0625,-0.15625,0.0,0.0,0.0
1696287346691,0.061523438,-0.041015625,1.0019531,-0.28125,0.0,0.09375,0.0,0.0,0.0
1696287346725,0.048828125,-0.041992188,1.0048828,-0.09375,0.28125,-0.09375,0.0,0.0,0.0
1696287346782,0.049804688,-0.0390625,0.99121094,-0.03125,0.03125,-0.03125,0.0,0.0,0.0
1696287346811,0.059570312,-0.037109375,0.9980469,-0.21875,-0.1875,-0.03125,0.0,0.0,0.0
1696287346848,0.051757812,-0.036132812,0.99609375,-0.03125,0.0,-0.03125,-13.1875,-33.5625,-160.375
1696287346966,0.05078125,-0.044921875,0.9902344,-0.21875,-0.1875,-0.03125,0.0,0.0,0.0
1696287346967,0.047851562,-0.034179688,1.0,0.34375,0.34375,-0.09375,0.0,0.0,0.0
1696287346969,0.051757812,-0.041015625,0.9824219,-0.03125,-0.0625,0.09375,0.0,0.0,0.0
1696287347057,0.049804688,-0.03125,0.99121094,-0.15625,-0.0625,-0.03125,0.0,0.0,0.0
1696287347060,0.055664062,-0.037109375,0.9970703,-0.03125,-0.0625,-0.03125,0.0,0.0,0.0
1696287347078,0.052734375,-0.0390625,0.9951172,-0.09375,0.0,0.09375,0.0,0.0,0.0
1696287347142,0.047851562,-0.044921875,0.9902344,-0.03125,0.09375,-0.03125,0.0,0.0,0.0
1696287347172,0.055664062,-0.037109375,1.0048828,-0.15625,-0.125,-0.03125,0.0,0.0,0.0
1696287347201,0.048828125,-0.040039062,0.9921875,0.09375,0.03125,-0.09375,0.0,0.0,0.0
1696287347264,0.049804688,-0.03515625,0.9970703,-0.34375,-0.125,0.03125,0.0,0.0,0.0
1696287347295,0.044921875,-0.044921875,1.0107422,0.09375,0.21875,0.03125,0.0,0.0,0.0
1696287347321,0.059570312,-0.044921875,0.9921875,-0.03125,0.0,-0.09375,-13.9375,-33.875,-158.75
1696287347440,0.053710938,-0.044921875,1.0,-0.03125,-0.125,-0.09375,0.0,0.0,0.0
1696287347443,0.053710938,-0.037109375,0.99316406,0.09375,0.03125,-0.03125,0.0,0.0,0.0
1696287347444,0.052734375,-0.043945312,0.9980469,-0.15625,-0.25,0.09375,0.0,0.0,0.0
1696287347501,0.052734375,-0.044921875,1.0126953,0.34375,0.59375,-0.09375,0.0,0.0,0.0
1696287347530,0.057617188,-0.029296875,1.0019531,-0.03125,-0.125,-0.03125,0.0,0.0,0.0
1696287347560,0.04296875,-0.04296875,1.0068359,-0.03125,0.15625,-0.21875,0.0,0.0,0.0
1696287347627,0.0546875,-0.0390625,1.0,-0.03125,-0.25,0.03125,0.0,0.0,0.0
1696287347651,0.055664062,-0.041992188,0.99121094,0.09375,0.15625,0.03125,0.0,0.0,0.0
1696287347680,0.056640625,-0.046875,1.0068359,0.03125,0.03125,0.03125,0.0,0.0,0.0
1696287347741,0.05078125,-0.041992188,0.9902344,-0.15625,0.21875,-0.09375,0.0,0.0,0.0
1696287347770,0.05078125,-0.043945312,0.9980469,0.15625,-0.0625,0.09375,0.0,0.0,0.0
1696287347800,0.047851562,-0.036132812,0.99121094,0.03125,0.03125,-0.15625,0.0,0.0,0.0
1696287347861,0.056640625,-0.038085938,0.98046875,-0.03125,0.0,-0.09375,-13.9375,-32.8125,-159.8125
1696287347893,0.053710938,-0.04296875,0.9902344,0.03125,0.15625,-0.03125,0.0,0.0,0.0
1696287347921,0.059570312,-0.041992188,0.9873047,-0.09375,0.0,-0.09375,0.0,0.0,0.0
1696287348012,0.061523438,-0.043945312,1.0019531,-0.09375,-0.25,-0.15625,0.0,0.0,0.0
1696287348022,0.0546875,-0.040039062,0.9902344,0.28125,0.09375,0.09375,0.0,0.0,0.0
1696287348041,0.057617188,-0.045898438,0.9980469,-0.28125,-0.1875,0.09375,0.0,0.0,0.0
1696287348100,0.05859375,-0.043945312,1.0,0.46875,0.28125,-0.03125,0.0,0.0,0.0
1696287348132,0.051757812,-0.04296875,0.9941406,-0.09375,-0.1875,-0.03125,0.0,0.0,0.0
1696287348161,0.056640625,-0.045898438,0.98828125,-0.09375,0.09375,-0.03125,0.0,0.0,0.0
1696287348222,0.0625,-0.043945312,0.98339844,-0.03125,-0.125,0.03125,0.0,0.0,0.0
1696287348251,0.055664062,-0.041992188,1.0107422,-0.03125,-0.125,0.09375,0.0,0.0,0.0
1696287348281,0.052734375,-0.045898438,0.99316406,0.03125,0.21875,-0.09375,0.0,0.0,0.0
1696287348499,0.056640625,-0.041992188,0.9941406,-0.15625,0.09375,-0.03125,-14.25,-33.125,-159.0625
1696287348500,0.055664062,-0.046875,0.99121094,0.21875,0.09375,-0.03125,0.0,0.0,0.0
1696287348501,0.048828125,-0.03515625,0.99609375,-0.15625,-0.1875,0.03125,0.0,0.0,0.0
1696287348502,0.059570312,-0.0390625,1.0019531,0.09375,0.0,-0.03125,0.0,0.0,0.0
1696287348503,0.052734375,-0.041992188,0.9980469,-0.21875,-0.0625,0.03125,0.0,0.0,0.0
1696287348519,0.052734375,-0.046875,1.0029297,-0.09375,0.09375,-0.03125,0.0,0.0,0.0
1696287348582,0.057617188,-0.040039062,0.99609375,-0.15625,-0.1875,-0.03125,0.0,0.0,0.0
1696287348618,0.0546875,-0.046875,0.9980469,0.28125,0.03125,0.09375,0.0,0.0,0.0
1696287348642,0.047851562,-0.048828125,0.98828125,-0.28125,-0.375,0.03125,0.0,0.0,0.0
1696287348702,0.05078125,-0.034179688,1.0058594,0.5625,0.46875,-0.03125,0.0,0.0,0.0
1696287348731,0.052734375,-0.040039062,0.99609375,-0.28125,-0.1875,0.03125,0.0,0.0,0.0
1696287348763,0.053710938,-0.04296875,0.98535156,0.09375,0.21875,-0.15625,0.0,0.0,0.0
1696287348821,0.05078125,-0.04296875,0.9902344,0.03125,-0.25,0.09375,0.0,0.0,0.0
1696287348852,0.047851562,-0.04296875,1.0029297,-0.15625,-0.125,0.03125,-13.1875,-34.1875,-158.3125
1696287348882,0.049804688,-0.044921875,1.0136719,0.03125,0.09375,-0.09375,0.0,0.0,0.0
1696287348977,0.052734375,-0.038085938,1.0058594,-0.15625,0.03125,-0.15625,0.0,0.0,0.0
1696287348979,0.05859375,-0.04296875,1.0068359,0.03125,-0.0625,-0.03125,0.0,0.0,0.0
1696287349003,0.05078125,-0.028320312,1.0,-0.09375,0.0,-0.03125,0.0,0.0,0.0
1696287349063,0.057617188,-0.04296875,0.9941406,-0.03125,-0.03125,-0.03125,0.0,0.0,0.0
1696287349090,0.05078125,-0.046875,1.0009766,0.03125,0.15625,0.21875,0.0,0.0,0.0
1696287349121,0.053710938,-0.053710938,0.9902344,-0.15625,-0.09375,0.09375,0.0,0.0,0.0
1696287349182,0.05078125,-0.038085938,0.99609375,-0.09375,-0.15625,-0.15625,0.0,0.0,0.0
1696287349212,0.0625,-0.045898438,1.0019531,0.15625,0.09375,0.03125,0.0,0.0,0.0
1696287349243,0.0546875,-0.048828125,0.9921875,-0.09375,-0.3125,0.03125,0.0,0.0,0.0
1696287349302,0.056640625,-0.048828125,0.9980469,0.5625,0.28125,-0.03125,0.0,0.0,0.0
1696287349333,0.049804688,-0.040039062,0.9980469,-0.21875,-0.3125,-0.03125,-12.625,-32.6875,-157.5625
1696287349360,0.051757812,-0.032226562,1.0068359,0.09375,0.09375,-0.03125,0.0,0.0,0.0
1696287349420,0.057617188,-0.041992188,1.0146484,0.15625,-0.09375,0.21875,0.0,0.0,0.0
1696287349452,0.0546875,-0.046875,0.99609375,-0.09375,-0.09375,0.15625,0.0,0.0,0.0
1696287349482,0.052734375,-0.043945312,1.0029297,0.09375,0.21875,0.09375,0.0,0.0,0.0
1696287349543,0.051757812,-0.05078125,0.9970703,-0.03125,-0.03125,-0.09375,0.0,0.0,0.0
1696287349570,0.053710938,-0.041015625,0.99609375,0.03125,0.09375,-0.09375,0.0,0.0,0.0
1696287349607,0.047851562,-0.038085938,1.0009766,0.21875,-0.15625,0.15625,0.0,0.0,0.0
1696287349662,0.053710938,-0.043945312,0.99316406,0.03125,-0.03125,0.09375,0.0,0.0,0.0
1696287349692,0.05859375,-0.037109375,0.9980469,0.03125,0.03125,-0.03125,0.0,0.0,0.0
1696287349722,0.051757812,-0.036132812,0.9980469,0.03125,0.03125,-0.03125,0.0,0.0,0.0
1696287349847,0.051757812,-0.032226562,0.9863281,-0.03125,-0.1875,-0.03125,0.0,0.0,0.0
1696287349850,0.053710938,-0.043945312,0.98828125,0.09375,0.09375,0.09375,0.0,0.0,0.0
1696287349851,0.041015625,-0.046875,0.98535156,-0.15625,-0.375,0.03125,-13.0625,-34.3125,-157.5625
1696287349932,0.060546875,-0.040039062,0.99609375,0.4375,0.71875,-0.09375,0.0,0.0,0.0
1696287349934,0.049804688,-0.038085938,0.98828125,-0.28125,-0.3125,0.15625,0.0,0.0,0.0
1696287349959,0.051757812,-0.0390625,0.9921875,0.40625,-0.03125,-0.21875,0.0,0.0,0.0
1696287350023,0.05078125,-0.0390625,1.0175781,-0.03125,-0.4375,0.09375,0.0,0.0,0.0
1696287350050,0.052734375,-0.034179688,0.99121094,-0.28125,-0.03125,0.09375,0.0,0.0,0.0
1696287350083,0.053710938,-0.037109375,1.0048828,0.34375,0.40625,0.09375,0.0,0.0,0.0
1696287350141,0.0625,-0.043945312,0.9951172,-0.34375,-0.09375,0.09375,0.0,0.0,0.0
1696287350172,0.059570312,-0.036132812,0.9980469,0.15625,-0.03125,-0.15625,0.0,0.0,0.0
1696287350200,0.052734375,-0.041992188,1.0039062,0.03125,-0.15625,0.03125,0.0,0.0,0.0
1696287350354,0.051757812,-0.030273438,1.0029297,-0.03125,-0.09375,0.09375,0.0,0.0,0.0
1696287350356,0.060546875,-0.041992188,0.9863281,0.09375,0.09375,-0.09375,0.0,0.0,0.0
1696287350357,0.057617188,-0.03515625,0.9970703,-0.09375,0.09375,-0.03125,-13.5,-33.5625,-159.375
1696287350382,0.047851562,-0.034179688,0.9941406,0.03125,-0.09375,0.03125,0.0,0.0,0.0
1696287350414,0.060546875,-0.036132812,0.98339844,-0.28125,-0.25,0.09375,0.0,0.0,0.0
1696287350445,0.0546875,-0.049804688,1.0048828,0.40625,0.21875,0.15625,0.0,0.0,0.0
1696287350533,0.052734375,-0.043945312,0.99316406,-0.28125,0.03125,-0.09375,0.0,0.0,0.0
1696287350535,0.053710938,-0.038085938,0.9902344,0.09375,0.03125,-0.21875,0.0,0.0,0.0
1696287350561,0.05078125,-0.036132812,1.0097656,0.28125,-0.25,0.03125,0.0,0.0,0.0
1696287350656,0.05859375,-0.038085938,0.9892578,-0.28125,-0.15625,0.09375,0.0,0.0,0.0
1696287350659,0.049804688,-0.037109375,1.0019531,0.09375,0.15625,-0.09375,0.0,0.0,0.0
1696287350681,0.053710938,-0.043945312,0.9951172,-0.28125,0.09375,-0.21875,0.0,0.0,0.0
1696287350744,0.061523438,-0.047851562,0.9873047,-0.03125,-0.03125,0.03125,0.0,0.0,0.0
1696287350771,0.052734375,-0.04296875,1.0009766,0.40625,0.03125,-0.03125,0.0,0.0,0.0
1696287350800,0.046875,-0.043945312,1.0009766,-0.03125,-0.1875,0.03125,0.0,0.0,0.0
1696287350861,0.060546875,-0.03515625,0.98339844,0.15625,0.15625,-0.09375,-14.6875,-33.5625,-158.0
1696287350890,0.051757812,-0.037109375,1.0039062,-0.21875,-0.15625,-0.03125,0.0,0.0,0.0
1696287350922,0.05078125,-0.0390625,0.99316406,-0.28125,-0.03125,0.03125,0.0,0.0,0.0
1696287350985,0.055664062,-0.040039062,0.9814453,-0.03125,-0.09375,0.03125,0.0,0.0,0.0
1696287351011,0.05078125,-0.0390625,0.99609375,-0.03125,-0.09375,0.15625,0.0,0.0,0.0
1696287351049,0.060546875,-0.04296875,1.0068359,0.15625,0.59375,-0.09375,0.0,0.0,0.0
1696287351133,0.061523438,-0.043945312,1.0,-0.65625,-0.1875,-0.28125,0.0,0.0,0.0
1696287351137,0.05859375,-0.037109375,0.9824219,0.4375,-0.15625,-0.09375,0.0,0.0,0.0
1696287351160,0.0546875,-0.044921875,0.9902344,-0.15625,-0.3125,0.09375,0.0,0.0,0.0
1696287351224,0.060546875,-0.048828125,0.9970703,-0.40625,0.03125,-0.03125,0.0,0.0,0.0
1696287351250,0.051757812,-0.041015625,0.99316406,0.28125,0.15625,-0.03125,0.0,0.0,0.0
1696287351282,0.060546875,-0.043945312,0.98339844,-0.40625,-0.25,-0.15625,0.0,0.0,0.0
1696287351339,0.0546875,-0.046875,0.99121094,0.09375,-0.15625,-0.21875,-13.8125,-32.9375,-159.1875
1696287351371,0.05859375,-0.030273438,0.9951172,-0.03125,-0.1875,-0.03125,0.0,0.0,0.0
1696287351402,0.051757812,-0.040039062,0.9863281,-0.09375,0.03125,-0.03125,0.0,0.0,0.0
1696287351464,0.057617188,-0.0390625,0.9863281,-0.03125,0.34375,0.03125,0.0,0.0,0.0
1696287351490,0.051757812,-0.046875,0.98535156,-0.28125,0.03125,-0.09375,0.0,0.0,0.0
1696287351523,0.056640625,-0.044921875,0.9980469,0.15625,0.09375,-0.09375,0.0,0.0,0.0
1696287351581,0.0625,-0.051757812,0.98339844,-0.28125,-0.5625,-0.03125,0.0,0.0,0.0
1696287351613,0.05078125,-0.047851562,0.9980469,0.34375,0.46875,-0.15625,0.0,0.0,0.0
1696287351642,0.0625,-0.04296875,0.9892578,-0.21875,-0.375,-0.09375,0.0,0.0,0.0
1696287351700,0.052734375,-0.036132812,0.99121094,0.15625,0.15625,-0.09375,0.0,0.0,0.0
1696287351730,0.0546875,-0.02734375,0.9941406,-0.15625,-0.25,-0.03125,0.0,0.0,0.0
1696287351761,0.044921875,-0.04296875,1.0009766,-0.03125,-0.1875,-0.03125,0.0,0.0,0.0
1696287351821,0.048828125,-0.045898438,1.0058594,-0.09375,0.03125,0.03125,0.0,0.0,0.0
1696287351853,0.05078125,-0.040039062,0.9902344,-0.15625,0.34375,-0.03125,-14.25,-33.5625,-158.75
1696287351882,0.053710938,-0.041992188,0.9873047,-0.03125,-0.1875,-0.09375,0.0,0.0,0.0
1696287351942,0.049804688,-0.036132812,0.9892578,0.15625,-0.09375,-0.15625,0.0,0.0,0.0
1696287351971,0.059570312,-0.036132812,0.99609375,-0.15625,-0.3125,-0.03125,0.0,0.0,0.0
1696287352002,0.055664062,-0.038085938,0.99316406,0.09375,0.34375,0.09375,0.0,0.0,0.0
1696287352059,0.049804688,-0.045898438,1.0087891,-0.28125,-0.09375,-0.03125,0.0,0.0,0.0
1696287352090,0.05859375,-0.043945312,0.9951172,-0.03125,-0.03125,-0.15625,0.0,0.0,0.0
1696287352122,0.047851562,-0.046875,0.9921875,0.03125,0.15625,0.09375,0.0,0.0,0.0
1696287352218,0.057617188,-0.043945312,1.0068359,-0.21875,-0.1875,-0.03125,0.0,0.0,0.0
1696287352221,0.043945312,-0.044921875,0.9873047,0.40625,0.34375,0.03125,0.0,0.0,0.0
1696287352241,0.048828125,-0.044921875,0.9951172,-0.03125,-0.03125,-0.15625,0.0,0.0,0.0
1696287352334,0.05859375,-0.040039062,0.99316406,-0.03125,-0.03125,-0.15625,0.0,0.0,0.0
1696287352338,0.060546875,-0.057617188,0.98535156,-0.09375,-0.25,-0.03125,-14.6875,-34.9375,-159.375
1696287352360,0.05859375,-0.0390625,0.9921875,-0.09375,-0.1875,0.03125,0.0,0.0,0.0
1696287352393,0.048828125,-0.041015625,0.99609375,0.03125,0.21875,-0.03125,0.0,0.0,0.0
1696287352453,0.056640625,-0.041015625,1.0029297,-0.15625,-0.03125,0.03125,0.0,0.0,0.0
1696287352487,0.048828125,-0.040039062,1.0029297,0.03125,0.09375,-0.21875,0.0,0.0,0.0
1696287352513,0.056640625,-0.038085938,0.9951172,-0.03125,-0.1875,-0.03125,0.0,0.0,0.0
1696287352724,0.052734375,-0.041015625,0.99316406,0.09375,0.21875,0.15625,0.0,0.0,0.0
1696287352727,0.068359375,-0.048828125,1.0029297,-0.03125,-0.15625,0.03125,0.0,0.0,0.0
1696287352730,0.059570312,-0.045898438,0.9921875,-0.03125,-0.03125,-0.03125,0.0,0.0,0.0
1696287352733,0.051757812,-0.041015625,0.9951172,0.15625,-0.09375,-0.15625,0.0,0.0,0.0
1696287352737,0.056640625,-0.038085938,0.98828125,-0.21875,-0.15625,-0.09375,0.0,0.0,0.0
1696287352750,0.052734375,-0.04296875,0.9980469,0.34375,0.15625,0.03125,0.0,0.0,0.0
1696287352813,0.05859375,-0.034179688,0.98828125,0.09375,0.03125,0.03125,0.0,0.0,0.0
1696287352846,0.047851562,-0.045898438,1.0048828,-0.09375,0.03125,0.03125,-12.625,-34.3125,-159.1875
1696287352878,0.052734375,-0.047851562,0.98828125,-0.21875,-0.09375,-0.09375,0.0,0.0,0.0
1696287352933,0.047851562,-0.044921875,1.0029297,0.15625,-0.03125,0.03125,0.0,0.0,0.0
1696287352966,0.051757812,-0.0390625,0.9814453,0.03125,0.03125,-0.0625,0.0,0.0,0.0
1696287352996,0.057617188,-0.037109375,0.99609375,0.03125,0.28125,-0.0625,0.0,0.0,0.0
1696287353055,0.047851562,-0.038085938,1.0068359,-0.03125,-0.09375,-0.0625,0.0,0.0,0.0
1696287353081,0.053710938,-0.041015625,0.9941406,0.09375,0.15625,-0.125,0.0,0.0,0.0
1696287353116,0.049804688,-0.040039062,0.99609375,-0.09375,-0.09375,0.0625,0.0,0.0,0.0
1696287353174,0.057617188,-0.0390625,1.0,0.09375,0.09375,0.0625,0.0,0.0,0.0
1696287353203,0.053710938,-0.041015625,0.9873047,-0.21875,-0.03125,-0.0625,0.0,0.0,0.0
1696287353231,0.05859375,-0.043945312,0.9970703,-0.03125,-0.15625,-0.0625,0.0,0.0,0.0
1696287353290,0.053710938,-0.053710938,1.0048828,0.28125,0.21875,-0.0625,0.0,0.0,0.0
1696287353338,0.0546875,-0.048828125,1.0029297,-0.28125,-0.3125,0.0625,-13.8125,-32.6875,-158.625
1696287353349,0.05859375,-0.037109375,0.9873047,0.40625,0.46875,-0.125,0.0,0.0,0.0
1696287353413,0.056640625,-0.038085938,1.0048828,-0.15625,-0.15625,-0.0625,0.0,0.0,0.0
1696287353441,0.041992188,-0.04296875,1.0009766,0.03125,0.09375,0.0625,0.0,0.0,0.0
1696287353534,0.044921875,-0.036132812,0.9746094,-0.09375,-0.3125,0.15625,0.0,0.0,0.0
1696287353535,0.056640625,-0.043945312,0.9970703,-0.09375,-0.09375,0.0,0.0,0.0,0.0
1696287353561,0.057617188,-0.052734375,0.9921875,-0.09375,0.03125,0.0625,0.0,0.0,0.0
1696287353594,0.0625,-0.037109375,1.0058594,0.03125,0.15625,0.09375,0.0,0.0,0.0
1696287353654,0.049804688,-0.033203125,1.0107422,0.09375,0.03125,0.0,0.0,0.0,0.0
1696287353682,0.056640625,-0.043945312,0.9951172,0.03125,0.03125,0.0625,0.0,0.0,0.0
1696287353714,0.052734375,-0.038085938,0.9785156,-0.03125,-0.15625,0.0,0.0,0.0,0.0
1696287353777,0.052734375,-0.040039062,1.0019531,-0.03125,0.03125,0.09375,0.0,0.0,0.0
1696287353802,0.056640625,-0.043945312,1.0,-0.21875,-0.03125,0.0625,0.0,0.0,0.0
1696287353835,0.0546875,-0.038085938,0.99121094,0.03125,-0.1875,0.0,-13.8125,-34.0,-158.125
1696287353892,0.048828125,-0.043945312,1.0,0.15625,0.15625,-0.0625,0.0,0.0,0.0
1696287353923,0.052734375,-0.0390625,0.99902344,-0.21875,-0.1875,0.0625,0.0,0.0,0.0
1696287353954,0.057617188,-0.040039062,1.0058594,0.46875,0.34375,-0.0625,0.0,0.0,0.0
1696287354012,0.051757812,-0.041015625,0.9873047,-0.21875,-0.25,-0.0625,0.0,0.0,0.0
1696287354044,0.05078125,-0.040039062,1.0009766,-0.03125,0.09375,-0.0625,0.0,0.0,0.0
1696287354069,0.0546875,-0.052734375,0.98535156,-0.03125,-0.15625,0.21875,0.0,0.0,0.0
1696287354164,0.051757812,-0.037109375,0.9970703,-0.03125,-0.03125,0.0,0.0,0.0,0.0
1696287354166,0.06347656,-0.043945312,0.99121094,-0.09375,0.15625,0.0,0.0,0.0,0.0
1696287354193,0.05859375,-0.0390625,1.0048828,-0.03125,0.09375,-0.125,0.0,0.0,0.0
1696287354256,0.053710938,-0.045898438,0.99609375,0.09375,-0.09375,0.0625,0.0,0.0,0.0
1696287354280,0.047851562,-0.043945312,0.9970703,-0.03125,-0.03125,0.0,0.0,0.0,0.0
1696287354310,0.057617188,-0.03515625,0.99902344,-0.03125,-0.03125,-0.0625,-14.25,-34.625,-159.0625
1696287354373,0.0625,-0.047851562,0.9814453,-0.09375,-0.03125,0.0,0.0,0.0,0.0
1696287354400,0.060546875,-0.045898438,1.0058594,-0.03125,0.03125,-0.0625,0.0,0.0,0.0
1696287354431,0.057617188,-0.05078125,0.9970703,-0.15625,0.03125,0.09375,0.0,0.0,0.0
1696287354495,0.052734375,-0.046875,1.015625,0.15625,0.09375,0.0,0.0,0.0,0.0
1696287354521,0.056640625,-0.04296875,0.99121094,-0.34375,-0.15625,0.09375,0.0,0.0,0.0
1696287354554,0.06542969,-0.0390625,0.99609375,0.40625,0.46875,-0.125,0.0,0.0,0.0
1696287354611,0.059570312,-0.040039062,0.99609375,-0.03125,-0.09375,-0.0625,0.0,0.0,0.0
1696287354643,0.055664062,-0.051757812,0.9980469,0.03125,0.09375,0.0,0.0,0.0,0.0
1696287354671,0.05078125,-0.037109375,0.9921875,-0.03125,-0.09375,0.0625,0.0,0.0,0.0
1696287354736,0.0546875,-0.041992188,1.0029297,-0.03125,-0.15625,-0.125,0.0,0.0,0.0
1696287354762,0.048828125,-0.043945312,0.99121094,0.03125,0.03125,0.0625,0.0,0.0,0.0
1696287354788,0.053710938,-0.048828125,1.0029297,0.03125,0.15625,-0.0625,0.0,0.0,0.0
1696287354852,0.0546875,-0.041015625,1.0029297,0.15625,-0.15625,0.0625,-14.125,-34.0,-158.875
1696287354880,0.057617188,-0.041992188,0.99609375,0.15625,0.03125,0.0625,0.0,0.0,0.0
1696287354915,0.056640625,-0.037109375,0.99316406,0.03125,-0.15625,0.09375,0.0,0.0,0.0
1696287355007,0.057617188,-0.051757812,0.98535156,0.09375,0.09375,0.09375,0.0,0.0,0.0
1696287355008,0.0625,-0.04296875,0.99121094,-0.21875,0.03125,0.0625,0.0,0.0,0.0
1696287355032,0.0546875,-0.041992188,0.98339844,0.15625,0.09375,-0.0625,0.0,0.0,0.0
1696287355093,0.046875,-0.045898438,1.0078125,0.03125,-0.03125,0.0,0.0,0.0,0.0
1696287355121,0.057617188,-0.04296875,0.9765625,-0.21875,-0.4375,0.15625,0.0,0.0,0.0
1696287355152,0.052734375,-0.043945312,0.9980469,0.34375,0.46875,-0.0625,0.0,0.0,0.0
1696287355213,0.056640625,-0.0390625,0.9902344,-0.09375,0.09375,0.0625,0.0,0.0,0.0
1696287355242,0.052734375,-0.043945312,0.99609375,0.15625,0.15625,-0.0625,0.0,0.0,0.0
1696287355271,0.05859375,-0.043945312,1.0009766,0.15625,-0.1875,0.15625,0.0,0.0,0.0
1696287355330,0.056640625,-0.045898438,0.9970703,-0.15625,-0.1875,0.0625,-13.5,-33.875,-158.75
1696287355366,0.053710938,-0.036132812,0.99609375,0.03125,0.15625,0.0,0.0,0.0,0.0
1696287355394,0.051757812,-0.043945312,0.97753906,0.03125,0.28125,0.0625,0.0,0.0,0.0
1696287355453,0.048828125,-0.0390625,0.9873047,-0.03125,-0.03125,0.0625,0.0,0.0,0.0
1696287355483,0.051757812,-0.043945312,0.99316406,0.34375,-0.09375,0.0625,0.0,0.0,0.0
1696287355512,0.05078125,-0.036132812,0.98535156,-0.03125,-0.15625,0.15625,0.0,0.0,0.0
1696287355609,0.060546875,-0.038085938,0.98535156,0.15625,0.03125,0.09375,0.0,0.0,0.0
1696287355611,0.046875,-0.034179688,1.0097656,-0.03125,-0.09375,-0.0625,0.0,0.0,0.0
1696287355633,0.052734375,-0.043945312,0.98828125,-0.34375,-0.03125,0.09375,0.0,0.0,0.0
1696287355691,0.051757812,-0.043945312,0.99316406,0.46875,0.34375,0.09375,0.0,0.0,0.0
1696287355721,0.056640625,-0.04296875,0.9863281,-0.21875,-0.4375,0.15625,0.0,0.0,0.0
1696287355782,0.053710938,-0.046875,1.0048828,0.65625,0.40625,0.09375,0.0,0.0,0.0
1696287355810,0.05859375,-0.037109375,0.98828125,-0.21875,-0.15625,-0.25,0.0,0.0,0.0
1696287355842,0.049804688,-0.036132812,0.99121094,0.34375,0.15625,-0.125,-14.375,-34.0,-159.1875
1696287355870,0.064453125,-0.038085938,0.9951172,0.28125,-0.15625,0.28125,0.0,0.0,0.0
1696287355933,0.047851562,-0.03125,1.0058594,-0.46875,0.09375,0.0,0.0,0.0,0.0
1696287355961,0.056640625,-0.0390625,1.0019531,0.21875,0.21875,0.0625,0.0,0.0,0.0
1696287355993,0.052734375,-0.04296875,0.9970703,-0.28125,0.21875,0.0625,0.0,0.0,0.0
1696287356055,0.051757812,-0.05078125,0.9863281,0.03125,-0.15625,-0.0625,0.0,0.0,0.0
1696287356082,0.057617188,-0.043945312,0.9941406,0.21875,-0.09375,0.0625,0.0,0.0,0.0
1696287356109,0.051757812,-0.043945312,0.99121094,-0.03125,-0.03125,0.0,0.0,0.0,0.0
1696287356173,0.05859375,-0.040039062,0.9902344,0.03125,0.09375,0.0,0.0,0.0,0.0
1696287356202,0.059570312,-0.034179688,1.0029297,-0.09375,0.03125,0.0625,0.0,0.0,0.0
1696287356231,0.046875,-0.0390625,1.0058594,-0.21875,-0.03125,-0.0625,0.0,0.0,0.0
1696287356292,0.0625,-0.041015625,0.9941406,-0.09375,-0.03125,0.0625,0.0,0.0,0.0
1696287356320,0.055664062,-0.05078125,0.9863281,0.03125,-0.03125,0.15625,-15.0,-32.375,-158.3125
1696287356357,0.053710938,-0.041015625,1.0019531,0.28125,0.59375,0.0,0.0,0.0,0.0
1696287356445,0.05078125,-0.04296875,0.9980469,-0.34375,-0.25,-0.25,0.0,0.0,0.0
1696287356452,0.053710938,-0.037109375,0.9921875,0.40625,-0.1875,-0.0625,0.0,0.0,0.0
1696287356472,0.055664062,-0.045898438,1.0087891,-0.21875,-0.25,0.0625,0.0,0.0,0.0
1696287356532,0.053710938,-0.038085938,0.9970703,-0.21875,0.03125,-0.0625,0.0,0.0,0.0
1696287356561,0.051757812,-0.0390625,1.0029297,0.09375,0.28125,-0.0625,0.0,0.0,0.0
1696287356590,0.056640625,-0.041015625,0.9941406,-0.46875,0.15625,-0.0625,0.0,0.0,0.0
1696287356656,0.051757812,-0.044921875,1.0058594,0.28125,0.09375,0.0,0.0,0.0,0.0
1696287356681,0.048828125,-0.046875,1.0058594,-0.03125,-0.1875,0.09375,0.0,0.0,0.0
1696287356709,0.05859375,-0.032226562,0.99902344,-0.03125,-0.03125,-0.0625,0.0,0.0,0.0
1696287356771,0.053710938,-0.040039062,1.0048828,0.03125,0.03125,0.0,0.0,0.0,0.0
1696287356800,0.0546875,-0.033203125,1.0009766,-0.46875,-0.09375,-0.125,0.0,0.0,0.0
1696287356834,0.053710938,-0.041992188,0.98828125,-0.09375,-0.03125,0.0625,-13.375,-34.0,-157.875
1696287356955,0.060546875,-0.040039062,1.0117188,-0.53125,-0.4375,0.15625,0.0,0.0,0.0
1696287356958,0.0546875,-0.041015625,1.0126953,0.40625,0.21875,-0.0625,0.0,0.0,0.0
1696287356960,0.052734375,-0.043945312,0.98535156,-0.21875,0.03125,-0.125,0.0,0.0,0.0
1696287357015,0.05078125,-0.040039062,1.0097656,-0.03125,-0.03125,-0.125,0.0,0.0,0.0
1696287357041,0.049804688,-0.047851562,0.9814453,0.03125,-0.09375,-0.0625,0.0,0.0,0.0
1696287357073,0.048828125,-0.041992188,0.98828125,-0.15625,-0.15625,0.09375,0.0,0.0,0.0
1696287357133,0.052734375,-0.032226562,1.0029297,-0.03125,-0.1875,-0.0625,0.0,0.0,0.0
1696287357163,0.0546875,-0.043945312,0.9892578,-0.28125,0.34375,-0.1875,0.0,0.0,0.0
1696287357192,0.0546875,-0.047851562,0.98535156,-0.15625,-0.15625,-0.0625,0.0,0.0,0.0
1696287357253,0.057617188,-0.041992188,0.99121094,0.15625,0.03125,-0.125,0.0,0.0,0.0
1696287357282,0.05078125,-0.041992188,1.0068359,-0.15625,-0.25,0.0625,0.0,0.0,0.0
1696287357313,0.051757812,-0.02734375,0.9951172,0.03125,0.15625,0.0625,-12.0,-34.3125,-158.125
1696287357370,0.0546875,-0.030273438,1.0039062,-0.15625,0.09375,-0.0625,0.0,0.0,0.0
1696287357402,0.056640625,-0.034179688,0.9941406,-0.28125,-0.25,-0.0625,0.0,0.0,0.0
1696287357431,0.053710938,-0.041992188,0.9902344,0.21875,0.21875,0.0625,0.0,0.0,0.0
1696287357493,0.04296875,-0.046875,0.9814453,-0.46875,-0.25,0.0625,0.0,0.0,0.0
1696287357520,0.052734375,-0.04296875,0.9765625,0.40625,0.34375,-0.0625,0.0,0.0,0.0
1696287357555,0.056640625,-0.04296875,1.0029297,0.03125,-0.4375,0.0625,0.0,0.0,0.0
1696287357613,0.057617188,-0.040039062,0.9980469,-0.09375,-0.25,-0.0625,0.0,0.0,0.0
1696287357642,0.0546875,-0.05078125,1.0019531,-0.03125,-0.1875,0.09375,0.0,0.0,0.0
1696287357674,0.05859375,-0.0390625,0.99902344,-0.03125,-0.15625,0.0625,0.0,0.0,0.0
1696287357735,0.0546875,-0.04296875,1.0058594,-0.09375,-0.09375,-0.0625,0.0,0.0,0.0
1696287357762,0.056640625,-0.043945312,0.9980469,-0.09375,-0.09375,0.0,0.0,0.0,0.0
1696287357791,0.048828125,-0.04296875,0.99121094,0.15625,0.09375,-0.125,0.0,0.0,0.0
1696287357855,0.05078125,-0.04296875,0.9892578,-0.09375,-0.03125,-0.0625,-12.4375,-32.375,-158.0
1696287357883,0.053710938,-0.03515625,0.9941406,0.15625,-0.03125,-0.0625,0.0,0.0,0.0
1696287357914,0.059570312,-0.048828125,1.0029297,-0.21875,-0.03125,-0.0625,0.0,0.0,0.0
1696287357973,0.056640625,-0.025390625,0.9951172,-0.03125,-0.09375,0.0,0.0,0.0,0.0
1696287358006,0.06542969,-0.0390625,1.0048828,-0.03125,-0.09375,-0.1875,0.0,0.0,0.0
1696287358064,0.0546875,-0.048828125,1.0068359,-0.09375,-0.03125,0.0625,0.0,0.0,0.0
1696287358090,0.0546875,-0.04296875,0.99316406,0.09375,0.09375,0.0,0.0,0.0,0.0
1696287358122,0.0546875,-0.04296875,1.0029297,0.34375,0.15625,-0.125,0.0,0.0,0.0
1696287358152,0.057617188,-0.038085938,0.9863281,-0.03125,-0.09375,-0.0625,0.0,0.0,0.0
1696287358213,0.056640625,-0.041015625,0.99316406,-0.15625,-0.09375,-0.125,0.0,0.0,0.0
1696287358241,0.0546875,-0.040039062,0.9970703,0.15625,-0.03125,0.09375,0.0,0.0,0.0
1696287358271,0.051757812,-0.044921875,1.0068359,-0.28125,-0.09375,0.09375,0.0,0.0,0.0
1696287358337,0.053710938,-0.04296875,1.0068359,0.09375,0.21875,-0.0625,-13.5,-32.8125,-158.3125
1696287358363,0.060546875,-0.03515625,0.9902344,-0.03125,-0.25,0.0625,0.0,0.0,0.0
1696287358392,0.05078125,-0.052734375,1.0058594,0.15625,-0.03125,-0.0625,0.0,0.0,0.0
1696287358453,0.056640625,-0.032226562,0.99902344,-0.09375,-0.15625,0.0625,0.0,0.0,0.0
1696287358482,0.060546875,-0.046875,0.9902344,0.09375,0.03125,0.0,0.0,0.0,0.0
1696287358511,0.057617188,-0.041015625,0.9814453,-0.15625,0.03125,0.0,0.0,0.0,0.0
1696287358577,0.05078125,-0.0390625,0.99316406,0.03125,0.03125,0.0,0.0,0.0,0.0
1696287358603,0.0546875,-0.045898438,0.99121094,-0.09375,-0.1875,0.0,0.0,0.0,0.0
1696287358630,0.053710938,-0.04296875,1.0039062,0.09375,0.21875,-0.0625,0.0,0.0,0.0
1696287358696,0.055664062,-0.040039062,0.99609375,-0.15625,-0.3125,0.09375,0.0,0.0,0.0
1696287358721,0.053710938,-0.0390625,0.9921875,0.28125,0.34375,-0.0625,0.0,0.0,0.0
1696287358750,0.053710938,-0.045898438,0.99121094,-0.09375,-0.1875,-0.0625,0.0,0.0,0.0
1696287359014,0.05859375,-0.0390625,0.9873047,-0.09375,0.09375,-0.125,0.0,0.0,0.0
1696287359016,0.043945312,-0.052734375,0.9921875,0.15625,-0.25,0.0,-13.8125,-34.3125,-158.125
1696287359020,0.05078125,-0.041015625,1.0087891,-0.21875,-0.03125,0.0,0.0,0.0,0.0
1696287359021,0.049804688,-0.044921875,0.9902344,0.03125,0.21875,0.0,0.0,0.0,0.0
1696287359022,0.049804688,-0.041992188,0.99316406,-0.09375,0.09375,-0.0625,0.0,0.0,0.0
1696287359023,0.052734375,-0.038085938,0.9970703,0.15625,0.09375,-0.125,0.0,0.0,0.0
1696287359052,0.05859375,-0.047851562,1.0058594,-0.03125,-0.1875,0.0625,0.0,0.0,0.0
1696287359080,0.052734375,-0.0390625,0.9921875,0.03125,0.09375,-0.125,0.0,0.0,0.0
1696287359113,0.056640625,-0.041015625,0.99316406,-0.03125,0.09375,0.0,0.0,0.0,0.0
1696287359204,0.051757812,-0.048828125,1.0,-0.03125,-0.03125,0.0625,0.0,0.0,0.0
1696287359205,0.0546875,-0.0390625,1.0048828,0.03125,-0.15625,-0.125,0.0,0.0,0.0
1696287359231,0.048828125,-0.0390625,0.99316406,0.15625,0.09375,-0.0625,0.0,0.0,0.0
1696287359295,0.057617188,-0.040039062,0.9902344,-0.34375,-0.25,0.0625,0.0,0.0,0.0
1696287359329,0.049804688,-0.044921875,1.0097656,0.40625,0.40625,0.0,-12.625,-33.6875,-159.1875
1696287359350,0.056640625,-0.040039062,1.0058594,-0.15625,-0.09375,-0.0625,0.0,0.0,0.0
1696287359442,0.059570312,-0.04296875,0.9980469,0.09375,0.09375,0.0625,0.0,0.0,0.0
1696287359445,0.051757812,-0.045898438,0.9902344,-0.03125,-0.03125,0.0625,0.0,0.0,0.0
1696287359471,0.047851562,-0.040039062,1.0048828,-0.09375,-0.03125,0.0,0.0,0.0,0.0
1696287359533,0.0546875,-0.04296875,0.9970703,-0.03125,-0.15625,0.09375,0.0,0.0,0.0
1696287359562,0.052734375,-0.05078125,0.9863281,0.09375,0.03125,-0.0625,0.0,0.0,0.0
1696287359591,0.0546875,-0.036132812,1.0,0.03125,-0.25,-0.0625,0.0,0.0,0.0
1696287359652,0.056640625,-0.032226562,0.9873047,0.15625,0.09375,0.0,0.0,0.0,0.0
1696287359680,0.057617188,-0.037109375,0.99121094,0.03125,0.03125,-0.0625,0.0,0.0,0.0
1696287359713,0.05859375,-0.036132812,0.9951172,0.21875,-0.09375,0.0625,0.0,0.0,0.0
1696287359773,0.05078125,-0.045898438,0.9873047,-0.09375,-0.03125,0.15625,0.0,0.0,0.0
1696287359802,0.052734375,-0.046875,0.9921875,0.03125,-0.09375,0.09375,0.0,0.0,0.0
1696287359830,0.055664062,-0.0390625,0.9765625,-0.15625,-0.03125,-0.125,-14.125,-34.75,-159.1875
1696287359927,0.0546875,-0.049804688,1.0,0.15625,0.09375,0.0625,0.0,0.0,0.0
1696287359932,0.047851562,-0.034179688,0.9941406,-0.03125,-0.1875,0.0625,0.0,0.0,0.0
1696287359950,0.057617188,-0.041015625,1.0009766,0.53125,0.65625,0.0,0.0,0.0,0.0
1696287360013,0.048828125,-0.040039062,0.9794922,-0.28125,-0.3125,-0.125,0.0,0.0,0.0
1696287360040,0.056640625,-0.038085938,0.9873047,0.21875,0.03125,-0.125,0.0,0.0,0.0
1696287360072,0.0625,-0.047851562,1.0087891,0.03125,-0.25,0.21875,0.0,0.0,0.0
1696287360136,0.057617188,-0.041015625,1.0175781,-0.6875,-0.03125,0.09375,0.0,0.0,0.0
1696287360161,0.052734375,-0.048828125,0.9980469,0.34375,0.28125,0.0625,0.0,0.0,0.0
1696287360192,0.05078125,-0.034179688,1.0029297,-0.21875,-0.03125,0.0,0.0,0.0,0.0
1696287360255,0.056640625,-0.038085938,0.9951172,0.28125,-0.09375,0.0625,0.0,0.0,0.0
1696287360280,0.05078125,-0.046875,1.0,0.34375,-0.1875,0.09375,0.0,0.0,0.0
1696287360405,0.051757812,-0.040039062,0.9814453,-0.15625,-0.03125,0.09375,0.0,0.0,0.0
1696287360407,0.0546875,-0.04296875,1.0009766,0.21875,-0.03125,0.21875,-13.9375,-33.125,-159.375
1696287360408,0.049804688,-0.036132812,1.0,-0.21875,-0.15625,0.0625,0.0,0.0,0.0
1696287360441,0.057617188,-0.040039062,0.9970703,-0.03125,-0.03125,0.0,0.0,0.0,0.0
1696287360492,0.0546875,-0.045898438,0.9892578,0.21875,0.15625,0.15625,0.0,0.0,0.0
1696287360521,0.064453125,-0.0390625,0.99316406,-0.15625,-0.5,0.09375,0.0,0.0,0.0
1696287360555,0.049804688,-0.034179688,1.0126953,0.59375,0.59375,0.0625,0.0,0.0,0.0
1696287360610,0.059570312,-0.041015625,1.0009766,-0.46875,-0.09375,0.0,0.0,0.0,0.0
1696287360641,0.053710938,-0.036132812,0.99316406,0.34375,0.03125,-0.1875,0.0,0.0,0.0
1696287360673,0.05078125,-0.043945312,0.99902344,0.09375,-0.4375,0.09375,0.0,0.0,0.0
1696287360763,0.05859375,-0.03515625,1.0039062,-0.3125,-0.0625,-0.125,0.0,0.0,0.0
1696287360764,0.057617188,-0.036132812,0.99902344,0.03125,0.1875,-0.125,0.0,0.0,0.0
1696287360790,0.056640625,-0.040039062,0.9863281,-0.25,0.0625,-0.125,0.0,0.0,0.0
1696287360916,0.049804688,-0.0390625,1.0,-0.125,-0.0625,-0.0625,-13.0625,-33.6875,-159.1875
1696287360919,0.05078125,-0.038085938,0.9941406,0.15625,-0.1875,0.0,0.0,0.0,0.0
1696287360924,0.056640625,-0.040039062,0.99609375,-0.1875,0.0,0.0,0.0,0.0,0.0
1696287360941,0.048828125,-0.037109375,0.9951172,0.03125,0.1875,-0.1875,0.0,0.0,0.0
1696287361001,0.056640625,-0.040039062,0.9951172,-0.3125,-0.1875,0.0,0.0,0.0,0.0
1696287361034,0.057617188,-0.044921875,0.9863281,-0.375,-0.0625,-0.0625,0.0,0.0,0.0
1696287361062,0.049804688,-0.040039062,1.0048828,0.0,0.0,-0.0625,0.0,0.0,0.0
1696287361125,0.06347656,-0.046875,0.99121094,-0.3125,-0.3125,-0.0625,0.0,0.0,0.0
1696287361154,0.052734375,-0.0390625,1.0029297,0.46875,0.4375,-0.125,0.0,0.0,0.0
1696287361181,0.05859375,-0.034179688,0.97753906,-0.6875,0.0,-0.375,0.0,0.0,0.0
1696287361271,0.057617188,-0.03125,0.99121094,0.0,0.1875,-0.3125,0.0,0.0,0.0
1696287361273,0.05078125,-0.043945312,0.99121094,0.03125,-0.25,0.0625,0.0,0.0,0.0
1696287361302,0.053710938,-0.028320312,1.0019531,-0.375,-0.0625,-0.0625,0.0,0.0,0.0
1696287361359,0.05078125,-0.034179688,1.0,-0.0625,-0.0625,-0.125,-12.125,-33.5625,-159.8125
1696287361391,0.043945312,-0.046875,0.98828125,-0.375,0.375,-0.125,0.0,0.0,0.0
1696287361421,0.052734375,-0.05078125,0.9902344,-0.25,0.0625,-0.1875,0.0,0.0,0.0
1696287361481,0.052734375,-0.037109375,1.0,0.34375,-0.125,-0.125,0.0,0.0,0.0
1696287361515,0.060546875,-0.046875,0.9902344,-0.1875,-0.25,0.0,0.0,0.0,0.0
1696287361543,0.051757812,-0.048828125,0.9980469,0.21875,0.1875,-0.1875,0.0,0.0,0.0
1696287361607,0.052734375,-0.046875,0.9970703,-0.25,0.125,-0.1875,0.0,0.0,0.0
1696287361634,0.051757812,-0.044921875,0.9980469,-0.125,-0.125,-0.125,0.0,0.0,0.0
1696287361662,0.051757812,-0.051757812,0.9902344,-0.0625,-0.1875,-0.1875,0.0,0.0,0.0
1696287361721,0.052734375,-0.041992188,0.99609375,-0.375,-0.1875,-0.0625,0.0,0.0,0.0
1696287361751,0.05078125,-0.044921875,1.0048828,0.03125,0.3125,-0.0625,0.0,0.0,0.0
1696287361782,0.0546875,-0.044921875,1.0039062,0.03125,0.0,-0.1875,0.0,0.0,0.0
