# Sensor type: Thingy
# Activity type: Standing
# Activity subtype: Normal
# Subject id: s2094833
# Notes: 
timestamp,accel_x,accel_y,accel_z,gyro_x,gyro_y,gyro_z,mag_x,mag_y,mag_z
1696287607572,-1.0068359,-0.009765625,-0.08105469,-0.25,0.875,0.0,0.0,0.0,0.0
1696287607632,-1.0097656,-0.020507812,-0.08886719,-4.15625,-0.21875,-0.59375,0.0,0.0,0.0
1696287607662,-1.0029297,-0.0107421875,-0.0703125,-1.46875,1.59375,-0.3125,0.0,0.0,0.0
1696287607691,-0.9951172,-0.016601562,-0.078125,-0.34375,0.125,-0.34375,0.0,0.0,0.0
1696287607755,-1.0117188,-0.032226562,-0.047851562,-0.78125,0.6875,-0.46875,0.0,0.0,0.0
1696287607781,-0.99121094,-0.0068359375,-0.07910156,-4.625,0.75,-1.09375,0.0,0.0,0.0
1696287607840,-0.99902344,-0.0068359375,-0.11230469,-0.125,-0.21875,-0.34375,-77.6875,-19.3125,-203.875
1696287607873,-0.9941406,-0.013671875,-0.0703125,0.8125,1.28125,0.3125,0.0,0.0,0.0
1696287607902,-1.0048828,-0.022460938,-0.099609375,-3.15625,0.125,-0.3125,0.0,0.0,0.0
1696287607932,-1.0117188,-0.01953125,-0.087890625,0.0,0.3125,0.0,0.0,0.0,0.0
1696287607992,-0.9902344,-0.013671875,-0.07324219,0.8125,0.3125,0.125,0.0,0.0,0.0
1696287608023,-1.0039062,-0.01171875,-0.099609375,-0.46875,0.3125,0.3125,0.0,0.0,0.0
1696287608051,-1.0019531,-0.0068359375,-0.064453125,1.53125,-0.0625,0.1875,0.0,0.0,0.0
1696287608112,-1.0009766,-0.0146484375,-0.078125,1.28125,0.125,0.5,0.0,0.0,0.0
1696287608141,-1.0068359,-0.013671875,-0.072265625,-0.78125,-0.125,0.1875,0.0,0.0,0.0
1696287608175,-0.99609375,-0.01171875,-0.083984375,0.5625,0.0625,0.125,0.0,0.0,0.0
1696287608263,-0.99902344,-0.015625,-0.08105469,0.25,0.125,0.3125,0.0,0.0,0.0
1696287608268,-1.0087891,-0.018554688,-0.08203125,-0.25,0.625,0.0,0.0,0.0,0.0
1696287608292,-1.0039062,-0.017578125,-0.078125,0.375,0.0,0.1875,0.0,0.0,0.0
1696287608411,-1.0058594,-0.0068359375,-0.08886719,-1.34375,0.25,-0.125,-79.9375,-18.875,-203.875
1696287608415,-1.0068359,-0.013671875,-0.08496094,0.375,0.0625,0.0,0.0,0.0,0.0
1696287608417,-1.0,-0.013671875,-0.08886719,-0.40625,0.25,-0.1875,0.0,0.0,0.0
1696287608470,-0.9970703,-0.0126953125,-0.07324219,-3.40625,0.625,-0.53125,0.0,0.0,0.0
1696287608502,-1.0039062,-0.013671875,-0.07519531,1.90625,0.5,-0.0625,0.0,0.0,0.0
1696287608530,-1.0039062,-0.01953125,-0.07519531,-4.15625,0.0,-0.46875,0.0,0.0,0.0
1696287608594,-1.0117188,-0.01953125,-0.080078125,1.28125,0.8125,0.0,0.0,0.0,0.0
1696287608622,-0.99902344,-0.005859375,-0.080078125,-0.53125,-0.40625,-0.0625,0.0,0.0,0.0
1696287608653,-1.0107422,-0.024414062,-0.08203125,-1.15625,0.875,-0.25,0.0,0.0,0.0
1696287608746,-1.0087891,-0.0146484375,-0.087890625,-1.28125,-0.40625,-0.25,0.0,0.0,0.0
1696287608750,-1.0058594,-0.0146484375,-0.07128906,0.125,0.25,0.1875,0.0,0.0,0.0
1696287608773,-1.0078125,-0.0087890625,-0.07128906,-1.15625,0.4375,-0.0625,0.0,0.0,0.0
1696287608836,-1.0068359,-0.028320312,-0.07714844,-0.46875,1.21875,-0.34375,-80.125,-19.75,-202.6875
1696287608862,-1.0117188,0.0,-0.091796875,-2.375,-0.21875,-0.46875,0.0,0.0,0.0
1696287608892,-1.0019531,-0.038085938,-0.087890625,2.21875,-0.1875,0.75,0.0,0.0,0.0
1696287608955,-0.99609375,-0.028320312,-0.083984375,0.25,-0.59375,0.1875,0.0,0.0,0.0
1696287608981,-1.0048828,-0.009765625,-0.07910156,0.6875,0.75,0.0625,0.0,0.0,0.0
1696287609013,-1.0039062,-0.01171875,-0.083984375,0.625,-0.125,0.25,0.0,0.0,0.0
1696287609077,-1.0126953,-0.020507812,-0.07519531,-0.25,0.25,0.125,0.0,0.0,0.0
1696287609102,-1.0029297,-0.0146484375,-0.08105469,-0.0625,0.625,0.4375,0.0,0.0,0.0
1696287609131,-1.0039062,-0.022460938,-0.08203125,1.09375,0.4375,0.3125,0.0,0.0,0.0
1696287609195,-1.0097656,-0.018554688,-0.07519531,-0.25,0.5,0.375,0.0,0.0,0.0
1696287609221,-0.9970703,-0.017578125,-0.08691406,0.375,0.0625,-0.0625,0.0,0.0,0.0
1696287609251,-0.9980469,-0.0078125,-0.09277344,1.15625,0.5,0.4375,0.0,0.0,0.0
1696287609316,-0.99902344,-0.001953125,-0.08300781,-0.40625,0.375,0.0625,0.0,0.0,0.0
1696287609344,-1.0048828,-0.0146484375,-0.08691406,0.6875,0.5,0.0625,-80.25,-19.9375,-201.0625
1696287609372,-1.0039062,-0.01171875,-0.07910156,-1.8125,0.4375,-0.46875,0.0,0.0,0.0
1696287609434,-1.0048828,-0.0146484375,-0.08691406,-0.0625,0.625,-0.25,0.0,0.0,0.0
1696287609467,-0.9970703,-0.0107421875,-0.07519531,-1.40625,0.1875,-0.34375,0.0,0.0,0.0
1696287609491,-1.0107422,-0.020507812,-0.0859375,-0.46875,0.75,-0.0625,0.0,0.0,0.0
1696287609559,-1.0166016,-0.024414062,-0.080078125,0.0,0.25,-0.125,0.0,0.0,0.0
1696287609581,-1.0068359,-0.0146484375,-0.078125,-0.53125,0.25,-0.3125,0.0,0.0,0.0
1696287609612,-1.0058594,-0.018554688,-0.08105469,-0.125,0.3125,-0.125,0.0,0.0,0.0
1696287609676,-1.0,-0.0087890625,-0.06347656,0.5,0.0,0.0,0.0,0.0,0.0
1696287609702,-1.0048828,-0.0078125,-0.076171875,-0.34375,0.5,-0.125,0.0,0.0,0.0
1696287609732,-1.0039062,-0.0146484375,-0.078125,0.4375,0.125,0.1875,0.0,0.0,0.0
1696287609795,-0.99609375,-0.020507812,-0.083984375,0.4375,0.3125,0.125,0.0,0.0,0.0
1696287609821,-1.0175781,-0.018554688,-0.08496094,0.1875,0.25,0.125,-79.1875,-20.6875,-203.125
1696287609851,-0.99902344,-0.018554688,-0.0703125,0.375,0.125,0.1875,0.0,0.0,0.0
1696287609913,-1.0087891,-0.0068359375,-0.07714844,-0.53125,0.3125,0.0,0.0,0.0,0.0
1696287609941,-1.0068359,-0.0087890625,-0.080078125,0.625,0.3125,0.0,0.0,0.0,0.0
1696287609975,-0.9951172,-0.01171875,-0.07714844,-1.75,0.375,-0.34375,0.0,0.0,0.0
1696287610031,-1.0019531,-0.005859375,-0.080078125,-0.34375,0.5,-0.1875,0.0,0.0,0.0
1696287610064,-1.0068359,-0.0087890625,-0.08886719,-0.1875,0.0,-0.1875,0.0,0.0,0.0
1696287610092,-1.0,-0.017578125,-0.07324219,-0.59375,0.125,-0.125,0.0,0.0,0.0
1696287610155,-1.0097656,-0.020507812,-0.091796875,0.5625,0.0625,0.1875,0.0,0.0,0.0
1696287610180,-1.0058594,-0.017578125,-0.068359375,1.15625,0.3125,0.125,0.0,0.0,0.0
1696287610221,-1.0087891,-0.01171875,-0.08691406,-0.1875,0.1875,-0.0625,0.0,0.0,0.0
1696287610273,-1.0029297,-0.009765625,-0.08496094,0.6875,0.25,-0.25,0.0,0.0,0.0
1696287610301,-1.0019531,0.00390625,-0.08691406,2.3125,-0.34375,0.375,0.0,0.0,0.0
1696287610333,-1.0058594,-0.026367188,-0.08105469,-0.59375,0.4375,0.0,-79.625,-20.8125,-201.625
1696287610395,-1.0058594,-0.01953125,-0.09472656,-0.0625,0.25,-0.0625,0.0,0.0,0.0
1696287610422,-1.0087891,-0.018554688,-0.07324219,0.4375,0.4375,0.1875,0.0,0.0,0.0
1696287610453,-1.0048828,-0.0107421875,-0.07421875,-0.0625,0.5625,0.0,0.0,0.0,0.0
1696287610516,-1.0009766,-0.016601562,-0.08496094,-0.71875,0.25,-0.25,0.0,0.0,0.0
1696287610541,-1.0029297,-0.00390625,-0.083984375,0.4375,0.5625,0.125,0.0,0.0,0.0
1696287610569,-1.0068359,-0.01171875,-0.07714844,-0.59375,0.4375,-0.25,0.0,0.0,0.0
1696287610637,-1.0039062,-0.021484375,-0.09277344,0.25,0.25,0.0625,0.0,0.0,0.0
1696287610662,-1.0019531,-0.01171875,-0.07421875,-0.40625,0.4375,-0.0625,0.0,0.0,0.0
1696287610693,-1.0078125,-0.015625,-0.091796875,0.5,0.3125,0.0,0.0,0.0,0.0
1696287610754,-1.0039062,-0.02734375,-0.087890625,0.125,0.4375,0.125,0.0,0.0,0.0
1696287610783,-1.0107422,-0.016601562,-0.08203125,-0.0625,0.0625,0.1875,0.0,0.0,0.0
1696287610812,-1.0078125,-0.0126953125,-0.08300781,0.9375,0.4375,-0.0625,-78.625,-19.75,-202.25
1696287610873,-1.0068359,-0.009765625,-0.06738281,-0.25,0.375,0.125,0.0,0.0,0.0
1696287610906,-0.99609375,-0.017578125,-0.08691406,0.9375,0.25,0.25,0.0,0.0,0.0
1696287610931,-1.0146484,-0.017578125,-0.080078125,-0.125,0.4375,-0.125,0.0,0.0,0.0
1696287611027,-1.0068359,-0.0068359375,-0.08691406,0.375,0.125,0.1875,0.0,0.0,0.0
1696287611028,-1.0068359,-0.001953125,-0.08886719,0.25,0.4375,0.1875,0.0,0.0,0.0
1696287611051,-0.9980469,-0.01171875,-0.08984375,-0.59375,0.25,0.1875,0.0,0.0,0.0
1696287611143,-1.0117188,-0.0126953125,-0.07910156,0.3125,0.625,0.5,0.0,0.0,0.0
1696287611146,-1.0107422,-0.022460938,-0.083984375,0.0625,0.5,0.25,0.0,0.0,0.0
1696287611173,-1.0087891,-0.029296875,-0.08203125,0.0625,0.3125,0.0625,0.0,0.0,0.0
1696287611237,-1.015625,-0.0146484375,-0.08691406,-0.40625,0.625,0.25,0.0,0.0,0.0
1696287611267,-0.99902344,-0.018554688,-0.07324219,1.21875,0.0,0.25,0.0,0.0,0.0
1696287611294,-1.0078125,-0.0078125,-0.07910156,-1.53125,0.8125,0.125,0.0,0.0,0.0
1696287611357,-1.0029297,-0.016601562,-0.08203125,0.625,0.3125,0.0625,-78.625,-19.75,-203.0
1696287611382,-1.0029297,-0.018554688,-0.07519531,0.0,0.5625,0.125,0.0,0.0,0.0
1696287611413,-1.0029297,-0.0068359375,-0.08886719,-0.53125,0.625,-0.125,0.0,0.0,0.0
1696287611476,-1.0039062,-0.0048828125,-0.07324219,-0.1875,0.6875,0.1875,0.0,0.0,0.0
1696287611501,-1.0019531,-0.0078125,-0.083984375,-0.0625,0.1875,0.1875,0.0,0.0,0.0
1696287611531,-1.0039062,-0.016601562,-0.07910156,0.0625,0.5,0.0625,0.0,0.0,0.0
1696287611594,-0.99316406,-0.017578125,-0.08300781,-0.1875,0.1875,0.125,0.0,0.0,0.0
1696287611622,-1.0048828,-0.0126953125,-0.07910156,0.625,0.5625,0.25,0.0,0.0,0.0
1696287611653,-1.0068359,-0.0126953125,-0.07910156,-0.25,0.0625,-0.0625,0.0,0.0,0.0
1696287611716,-1.0058594,-0.005859375,-0.08691406,0.5625,0.625,0.0625,0.0,0.0,0.0
1696287611742,-1.0039062,-0.016601562,-0.08496094,-0.40625,0.0,0.1875,0.0,0.0,0.0
1696287611772,-0.9980469,-0.0068359375,-0.091796875,1.09375,0.5,0.0,0.0,0.0,0.0
1696287611838,-1.0087891,-0.017578125,-0.072265625,0.0,0.3125,0.25,-78.625,-20.5,-202.6875
1696287611865,-1.0117188,-0.0107421875,-0.0703125,0.5625,0.3125,0.0625,0.0,0.0,0.0
1696287611892,-0.99902344,-0.001953125,-0.07324219,0.375,0.4375,-0.0625,0.0,0.0,0.0
1696287611951,-1.0097656,-0.025390625,-0.07421875,-0.40625,0.6875,0.0625,0.0,0.0,0.0
1696287611982,-1.0078125,-0.0107421875,-0.08203125,0.125,0.4375,0.0625,0.0,0.0,0.0
1696287612015,-1.0078125,-0.015625,-0.09375,-0.46875,0.5,-0.125,0.0,0.0,0.0
1696287612192,-1.0,-0.0107421875,-0.087890625,0.3125,0.0625,0.0625,0.0,0.0,0.0
1696287612195,-1.0019531,-0.020507812,-0.0703125,0.0,0.375,-0.0625,0.0,0.0,0.0
1696287612197,-1.0068359,-0.013671875,-0.09375,-0.25,0.125,0.0625,0.0,0.0,0.0
1696287612199,-1.0048828,-0.0126953125,-0.07714844,0.8125,0.375,0.0625,0.0,0.0,0.0
1696287612223,-1.0058594,-0.009765625,-0.08984375,-0.46875,-0.0625,0.0,0.0,0.0,0.0
1696287612253,-0.9980469,-0.01953125,-0.08886719,0.3125,0.1875,0.125,0.0,0.0,0.0
1696287612315,-1.0068359,-0.0146484375,-0.07714844,0.5,0.4375,-0.0625,0.0,0.0,0.0
1696287612342,-0.9951172,-0.017578125,-0.08691406,0.5625,0.0625,0.0625,-79.375,-19.4375,-202.25
1696287612377,-1.0166016,-0.0146484375,-0.08300781,-0.84375,0.6875,-0.125,0.0,0.0,0.0
1696287612435,-0.99609375,-0.01171875,-0.07324219,0.625,0.0625,-0.0625,0.0,0.0,0.0
1696287612462,-1.0078125,-0.0126953125,-0.07910156,-0.84375,1.0,-0.125,0.0,0.0,0.0
1696287612491,-1.0058594,-0.016601562,-0.087890625,-0.71875,0.625,-0.1875,0.0,0.0,0.0
1696287612588,-1.0058594,-0.020507812,-0.09375,-0.46875,0.125,-0.125,0.0,0.0,0.0
1696287612592,-1.0068359,-0.017578125,-0.0703125,-0.59375,0.1875,-0.1875,0.0,0.0,0.0
1696287612611,-0.9951172,-0.022460938,-0.11425781,0.625,0.375,-0.1875,0.0,0.0,0.0
1696287612678,-1.0048828,-0.020507812,-0.08691406,0.1875,-0.28125,0.0,0.0,0.0,0.0
1696287612704,-1.0048828,-0.009765625,-0.09472656,0.3125,0.4375,-0.0625,0.0,0.0,0.0
1696287612733,-1.0019531,-0.016601562,-0.09082031,0.0625,-0.125,0.0625,0.0,0.0,0.0
1696287612797,-1.0058594,-0.016601562,-0.06738281,0.75,0.375,0.125,0.0,0.0,0.0
1696287612822,-1.0097656,-0.016601562,-0.08496094,-0.46875,0.125,0.0625,-79.9375,-20.375,-203.125
1696287612851,-1.0,-0.01171875,-0.091796875,0.75,0.0,-0.1875,0.0,0.0,0.0
1696287612983,-1.0078125,-0.017578125,-0.091796875,-0.34375,0.4375,-0.0625,0.0,0.0,0.0
1696287612987,-1.0039062,-0.0146484375,-0.072265625,0.1875,0.25,-0.125,0.0,0.0,0.0
1696287612989,-1.0039062,-0.01953125,-0.087890625,-0.125,0.1875,-0.0625,0.0,0.0,0.0
1696287613067,-1.0,-0.01953125,-0.08105469,0.125,0.6875,-0.125,0.0,0.0,0.0
1696287613069,-1.0117188,-0.0126953125,-0.095703125,-0.125,0.0625,-0.0625,0.0,0.0,0.0
1696287613091,-1.0107422,-0.0126953125,-0.08203125,-0.53125,0.3125,-0.34375,0.0,0.0,0.0
1696287613158,-1.0087891,-0.016601562,-0.087890625,0.625,0.3125,0.125,0.0,0.0,0.0
1696287613181,-1.0126953,-0.021484375,-0.068359375,-0.40625,0.4375,-0.1875,0.0,0.0,0.0
1696287613211,-1.0068359,-0.01171875,-0.08300781,-0.40625,0.0625,-0.125,0.0,0.0,0.0
1696287613308,-1.0039062,-0.022460938,-0.07519531,0.125,0.375,0.0625,0.0,0.0,0.0
1696287613310,-1.0068359,-0.01171875,-0.08691406,0.625,0.0625,0.1875,0.0,0.0,0.0
1696287613332,-1.0068359,-0.025390625,-0.083984375,0.875,-0.125,0.3125,-79.0625,-20.8125,-201.625
1696287613397,-1.0146484,-0.018554688,-0.07714844,0.375,0.625,0.125,0.0,0.0,0.0
1696287613421,-1.0068359,-0.013671875,-0.09375,1.03125,-0.125,0.125,0.0,0.0,0.0
1696287613453,-1.0039062,-0.01953125,-0.07910156,-0.0625,0.5,0.125,0.0,0.0,0.0
1696287613547,-0.9970703,-0.018554688,-0.09375,-0.0625,-0.0625,0.0625,0.0,0.0,0.0
1696287613549,-1.0078125,-0.018554688,-0.0859375,0.6875,0.625,0.0625,0.0,0.0,0.0
1696287613574,-1.0097656,-0.0107421875,-0.07910156,-1.03125,0.1875,-0.0625,0.0,0.0,0.0
1696287613637,-0.99902344,-0.0126953125,-0.080078125,0.9375,0.4375,0.0625,0.0,0.0,0.0
1696287613661,-1.0146484,-0.0126953125,-0.0859375,-1.09375,0.5625,-0.25,0.0,0.0,0.0
1696287613695,-1.0048828,-0.0107421875,-0.09375,0.625,0.125,0.0625,0.0,0.0,0.0
1696287613756,-1.0078125,-0.013671875,-0.087890625,-0.46875,0.5625,-0.125,0.0,0.0,0.0
1696287613782,-1.0039062,-0.022460938,-0.07910156,-0.1875,0.5,-0.125,0.0,0.0,0.0
1696287613814,-1.0058594,-0.015625,-0.078125,-0.3125,0.125,0.0,-79.5,-20.6875,-203.875
1696287613905,-1.0029297,-0.0087890625,-0.08984375,0.0,0.3125,-0.125,0.0,0.0,0.0
1696287613907,-1.0117188,-0.013671875,-0.07910156,-0.3125,0.25,0.1875,0.0,0.0,0.0
1696287613933,-0.9951172,-0.017578125,-0.07324219,0.625,0.125,0.125,0.0,0.0,0.0
1696287614026,-1.0068359,-0.017578125,-0.08300781,-0.25,0.1875,0.125,0.0,0.0,0.0
1696287614028,-1.0068359,-0.013671875,-0.07714844,0.1875,0.1875,0.125,0.0,0.0,0.0
1696287614050,-1.0068359,-0.0087890625,-0.08886719,0.8125,0.0,0.5,0.0,0.0,0.0
1696287614117,-1.0039062,-0.016601562,-0.06933594,0.625,0.25,0.3125,0.0,0.0,0.0
1696287614144,-1.0,-0.00390625,-0.08984375,0.3125,0.375,0.1875,0.0,0.0,0.0
1696287614172,-1.0195312,-0.013671875,-0.08691406,0.0625,0.3125,0.375,0.0,0.0,0.0
1696287614236,-1.0039062,-0.021484375,-0.08691406,-0.59375,0.6875,-0.0625,0.0,0.0,0.0
1696287614262,-1.0058594,-0.0234375,-0.083984375,0.0,0.0,0.3125,0.0,0.0,0.0
1696287614293,-0.99902344,-0.020507812,-0.087890625,-0.25,0.1875,-0.125,0.0,0.0,0.0
1696287614353,-0.9970703,-0.013671875,-0.08105469,0.375,-0.0625,0.3125,-80.25,-19.625,-202.375
1696287614384,-1.0087891,-0.022460938,-0.078125,0.375,0.3125,0.3125,0.0,0.0,0.0
1696287614414,-1.0097656,-0.0107421875,-0.08300781,0.25,0.0,0.25,0.0,0.0,0.0
1696287614473,-1.0,-0.017578125,-0.06933594,0.5625,-0.0625,0.125,0.0,0.0,0.0
1696287614499,-1.015625,-0.013671875,-0.08496094,0.3125,0.4375,0.125,0.0,0.0,0.0
1696287614532,-0.9980469,-0.020507812,-0.08203125,0.875,0.0,0.375,0.0,0.0,0.0
1696287614597,-1.0175781,-0.020507812,-0.07324219,-0.84375,0.5,0.1875,0.0,0.0,0.0
1696287614623,-0.99316406,-0.0126953125,-0.09277344,0.25,0.3125,0.0,0.0,0.0,0.0
1696287614653,-1.015625,-0.0078125,-0.0703125,0.5625,0.6875,0.3125,0.0,0.0,0.0
1696287614717,-1.0107422,-0.028320312,-0.07910156,-0.53125,0.6875,-0.1875,0.0,0.0,0.0
1696287614741,-1.0126953,0.0,-0.091796875,-0.46875,0.4375,-0.0625,0.0,0.0,0.0
1696287614775,-1.0039062,-0.02734375,-0.08886719,-0.65625,0.5,-0.0625,0.0,0.0,0.0
1696287614896,-1.0087891,-0.0068359375,-0.07519531,-0.0625,0.375,0.0625,-78.4375,-20.375,-203.125
1696287614899,-1.0068359,-0.01953125,-0.07714844,-0.65625,0.25,-0.0625,0.0,0.0,0.0
1696287614901,-1.0087891,-0.018554688,-0.07714844,0.9375,0.625,0.25,0.0,0.0,0.0
1696287615016,-1.0078125,-0.021484375,-0.08984375,-0.46875,0.3125,-0.0625,0.0,0.0,0.0
1696287615018,-1.0097656,-0.0078125,-0.07910156,1.28125,0.3125,0.375,0.0,0.0,0.0
1696287615019,-1.0039062,-0.0126953125,-0.09277344,-0.40625,0.25,0.0625,0.0,0.0,0.0
1696287615076,-1.015625,-0.01171875,-0.087890625,1.46875,0.4375,0.375,0.0,0.0,0.0
1696287615101,-0.9980469,-0.013671875,-0.083984375,-0.53125,0.125,-0.0625,0.0,0.0,0.0
1696287615134,-1.0117188,-0.021484375,-0.07421875,0.0,0.75,0.0,0.0,0.0,0.0
1696287615198,-1.0039062,-0.0126953125,-0.09667969,-0.59375,0.25,-0.1875,0.0,0.0,0.0
1696287615223,-1.0009766,-0.0078125,-0.07128906,0.0,0.5625,0.125,0.0,0.0,0.0
1696287615253,-1.0058594,-0.0234375,-0.08203125,-0.40625,0.375,-0.125,0.0,0.0,0.0
1696287615376,-1.0078125,-0.01953125,-0.10253906,-0.1875,0.375,0.0,0.0,0.0,0.0
1696287615380,-1.0205078,-0.025390625,-0.09082031,-0.34375,0.1875,0.0,-79.375,-19.75,-201.9375
1696287615382,-1.0019531,-0.020507812,-0.08691406,0.375,0.25,0.1875,0.0,0.0,0.0
1696287615434,-1.015625,-0.018554688,-0.08984375,-0.0625,0.0625,0.125,0.0,0.0,0.0
1696287615462,-1.0,-0.015625,-0.078125,0.375,0.3125,0.0625,0.0,0.0,0.0
1696287615492,-1.0068359,-0.0068359375,-0.08300781,-0.34375,0.1875,0.0,0.0,0.0,0.0
1696287615586,-1.0087891,-0.0078125,-0.09277344,-0.1875,0.25,-0.3125,0.0,0.0,0.0
1696287615588,-1.0029297,-0.018554688,-0.083984375,-0.84375,0.25,-0.1875,0.0,0.0,0.0
1696287615612,-1.0068359,-0.01953125,-0.09472656,0.25,0.0,0.0625,0.0,0.0,0.0
1696287615675,-1.0068359,-0.0146484375,-0.07519531,0.0,0.3125,-0.125,0.0,0.0,0.0
1696287615702,-1.0039062,-0.022460938,-0.07910156,0.4375,-0.1875,-0.0625,0.0,0.0,0.0
1696287615734,-1.0146484,-0.0126953125,-0.09375,0.0,0.5,-0.3125,0.0,0.0,0.0
1696287615764,-1.0019531,-0.0078125,-0.095703125,0.9375,-0.21875,0.1875,0.0,0.0,0.0
1696287615826,-1.0126953,-0.029296875,-0.068359375,0.1875,0.3125,0.375,-78.3125,-20.0625,-201.9375
1696287615860,-1.0048828,-0.0087890625,-0.078125,-0.71875,0.1875,-0.125,0.0,0.0,0.0
1696287615880,-1.0097656,-0.015625,-0.06640625,0.9375,0.3125,0.0,0.0,0.0,0.0
1696287616032,-1.0039062,-0.018554688,-0.087890625,-0.46875,0.4375,-0.25,0.0,0.0,0.0
1696287616034,-1.0058594,-0.0078125,-0.076171875,0.0,0.5,-0.125,0.0,0.0,0.0
1696287616035,-1.0058594,-0.016601562,-0.07421875,-0.46875,0.5625,-0.25,0.0,0.0,0.0
1696287616062,-1.0068359,-0.009765625,-0.09375,0.5,0.125,0.25,0.0,0.0,0.0
1696287616121,-1.0068359,-0.022460938,-0.07910156,-0.3125,0.375,-0.34375,0.0,0.0,0.0
1696287616122,-1.0048828,-0.0126953125,-0.07714844,0.0625,0.3125,-0.1875,0.0,0.0,0.0
1696287616187,-1.0126953,-0.018554688,-0.09277344,0.6875,0.125,0.1875,0.0,0.0,0.0
1696287616210,-1.0058594,-0.0087890625,-0.07421875,0.3125,0.125,-0.0625,0.0,0.0,0.0
1696287616243,-1.0058594,-0.018554688,-0.08496094,1.03125,-0.1875,0.1875,0.0,0.0,0.0
1696287616366,-1.0,-0.005859375,-0.08496094,0.0,0.25,-0.1875,0.0,0.0,0.0
1696287616368,-1.0058594,-0.0126953125,-0.09472656,0.875,0.3125,0.1875,-79.0625,-19.4375,-201.625
1696287616370,-1.0087891,-0.01171875,-0.08496094,0.375,0.5625,0.125,0.0,0.0,0.0
1696287616423,-1.0117188,-0.0087890625,-0.08691406,-0.96875,0.4375,-0.125,0.0,0.0,0.0
1696287616450,-1.0029297,-0.013671875,-0.076171875,0.4375,0.375,-0.125,0.0,0.0,0.0
1696287616482,-1.0068359,-0.024414062,-0.076171875,-0.59375,0.5,-0.0625,0.0,0.0,0.0
1696287616547,-1.0097656,-0.01171875,-0.08300781,-0.0625,0.5,-0.34375,0.0,0.0,0.0
1696287616577,-1.0029297,-0.0087890625,-0.0859375,-0.0625,0.3125,-0.0625,0.0,0.0,0.0
1696287616602,-1.0019531,-0.017578125,-0.07421875,-0.125,0.1875,-0.1875,0.0,0.0,0.0
1696287616664,-1.0087891,-0.0234375,-0.07910156,-0.25,0.0625,-0.1875,0.0,0.0,0.0
1696287616692,-1.0166016,-0.022460938,-0.087890625,-0.25,0.125,0.0,0.0,0.0,0.0
1696287616721,-1.0019531,-0.025390625,-0.08300781,1.03125,0.0625,0.5,0.0,0.0,0.0
1696287616906,-1.0126953,-0.0234375,-0.09472656,-0.3125,0.1875,0.1875,0.0,0.0,0.0
1696287616907,-1.0039062,-0.0126953125,-0.07910156,0.1875,0.25,0.1875,-80.125,-19.4375,-202.6875
1696287616908,-1.0058594,-0.022460938,-0.07324219,0.5,-0.0625,0.375,0.0,0.0,0.0
1696287616909,-1.0078125,-0.0146484375,-0.06933594,0.4375,0.1875,0.0625,0.0,0.0,0.0
1696287616932,-0.9980469,-0.016601562,-0.095703125,0.375,0.125,0.25,0.0,0.0,0.0
1696287616962,-0.99902344,-0.016601562,-0.07324219,0.125,0.25,0.125,0.0,0.0,0.0
1696287617023,-1.0029297,-0.017578125,-0.08300781,-0.34375,0.25,0.0625,0.0,0.0,0.0
1696287617062,-1.0,-0.0146484375,-0.06640625,0.1875,0.1875,0.1875,0.0,0.0,0.0
1696287617079,-1.0117188,-0.017578125,-0.08203125,-0.59375,0.4375,0.1875,0.0,0.0,0.0
1696287617144,-0.9970703,-0.01953125,-0.07714844,0.375,0.125,0.1875,0.0,0.0,0.0
1696287617170,-1.0097656,-0.0107421875,-0.072265625,-0.0625,0.375,0.125,0.0,0.0,0.0
1696287617204,-1.0068359,-0.026367188,-0.07910156,0.5625,0.375,0.0625,0.0,0.0,0.0
1696287617266,-1.0078125,-0.0078125,-0.083984375,-0.78125,-0.0625,0.125,0.0,0.0,0.0
1696287617291,-1.0029297,-0.017578125,-0.07714844,0.5625,-0.0625,0.1875,0.0,0.0,0.0
1696287617322,-1.0175781,-0.020507812,-0.091796875,-0.40625,0.3125,0.25,-79.375,-20.0625,-201.1875
1696287617472,-1.0,-0.028320312,-0.078125,0.6875,0.0,0.0,0.0,0.0,0.0
1696287617474,-1.0107422,-0.00390625,-0.08203125,-0.46875,0.1875,0.1875,0.0,0.0,0.0
1696287617475,-0.9970703,-0.0146484375,-0.08300781,-0.0625,0.0625,0.125,0.0,0.0,0.0
1696287617503,-1.0048828,-0.0146484375,-0.083984375,0.5625,0.3125,0.1875,0.0,0.0,0.0
1696287617531,-1.0029297,-0.01171875,-0.078125,-0.96875,0.1875,0.0625,0.0,0.0,0.0
1696287617562,-1.0,-0.0107421875,-0.07714844,-0.3125,0.375,-0.25,0.0,0.0,0.0
1696287617624,-1.015625,-0.025390625,-0.08496094,-0.65625,0.0625,0.0625,0.0,0.0,0.0
1696287617652,-1.0,-0.0087890625,-0.080078125,-0.125,0.0625,-0.125,0.0,0.0,0.0
1696287617682,-1.0048828,-0.0107421875,-0.09375,-0.34375,0.0625,-0.0625,0.0,0.0,0.0
1696287617745,-1.0039062,-0.0078125,-0.08496094,0.3125,0.3125,0.0625,0.0,0.0,0.0
1696287617772,-1.0107422,-0.017578125,-0.08496094,-0.0625,0.125,0.3125,0.0,0.0,0.0
1696287617804,-1.0039062,-0.0087890625,-0.07910156,0.8125,0.375,0.0625,-78.0,-20.5,-202.25
1696287617864,-1.0078125,-0.009765625,-0.08886719,0.0625,0.25,0.125,0.0,0.0,0.0
1696287617893,-1.0107422,-0.020507812,-0.083984375,1.09375,0.1875,0.4375,0.0,0.0,0.0
1696287617924,-1.0019531,-0.018554688,-0.06542969,0.9375,0.0,0.0625,0.0,0.0,0.0
1696287617985,-1.0058594,-0.0078125,-0.08496094,0.8125,-0.1875,0.75,0.0,0.0,0.0
1696287618013,-1.0039062,-0.0146484375,-0.083984375,-0.25,0.1875,0.125,0.0,0.0,0.0
1696287618043,-1.0068359,-0.0078125,-0.08691406,0.6875,0.0,0.1875,0.0,0.0,0.0
1696287618107,-1.0097656,-0.013671875,-0.08886719,0.375,0.125,0.4375,0.0,0.0,0.0
1696287618133,-1.0078125,-0.0029296875,-0.080078125,-0.0625,0.1875,0.0625,0.0,0.0,0.0
1696287618162,-1.0029297,-0.017578125,-0.08203125,-0.0625,-0.125,0.1875,0.0,0.0,0.0
1696287618284,-1.0,-0.018554688,-0.091796875,0.8125,0.0,0.3125,0.0,0.0,0.0
1696287618286,-1.0078125,-0.026367188,-0.09277344,-0.65625,0.0625,-0.125,0.0,0.0,0.0
1696287618287,-1.0097656,-0.0126953125,-0.07324219,0.75,0.1875,0.1875,0.0,0.0,0.0
1696287618345,-1.0068359,-0.013671875,-0.080078125,-0.1875,0.25,0.0625,-79.375,-21.25,-202.25
1696287618373,-1.0078125,-0.00390625,-0.07324219,-0.71875,0.0625,-0.125,0.0,0.0,0.0
1696287618405,-0.9941406,-0.018554688,-0.091796875,-0.84375,0.1875,-0.125,0.0,0.0,0.0
1696287618466,-1.0058594,-0.016601562,-0.08203125,-0.0625,0.125,0.25,0.0,0.0,0.0
1696287618492,-0.99609375,-0.017578125,-0.07910156,-0.25,0.5625,-0.1875,0.0,0.0,0.0
1696287618520,-1.0078125,-0.018554688,-0.076171875,0.5625,-0.0625,0.25,0.0,0.0,0.0
1696287618585,-1.0097656,-0.01953125,-0.07421875,-0.3125,0.4375,-0.0625,0.0,0.0,0.0
1696287618612,-1.0039062,-0.013671875,-0.080078125,0.25,-0.21875,0.125,0.0,0.0,0.0
1696287618642,-1.0058594,-0.0126953125,-0.06738281,0.75,0.4375,0.1875,0.0,0.0,0.0
1696287618705,-0.9970703,-0.009765625,-0.08496094,-0.65625,-0.125,0.1875,0.0,0.0,0.0
1696287618731,-1.0078125,-0.0048828125,-0.06542969,0.75,0.125,0.0625,0.0,0.0,0.0
1696287618764,-0.99902344,-0.016601562,-0.09375,-0.25,-0.0625,0.1875,0.0,0.0,0.0
1696287618913,-1.0068359,-0.026367188,-0.083984375,0.4375,0.0625,0.125,0.0,0.0,0.0
1696287618942,-1.0087891,-0.009765625,-0.06933594,-0.1875,0.25,-0.0625,-79.9375,-20.6875,-202.875
1696287618973,-1.0048828,-0.025390625,-0.080078125,0.4375,-0.0625,0.125,0.0,0.0,0.0
1696287618974,-1.015625,-0.0078125,-0.078125,-0.1875,0.125,0.0625,0.0,0.0,0.0
1696287618975,-1.0068359,-0.020507812,-0.07519531,0.5625,0.0625,0.125,0.0,0.0,0.0
1696287619002,-1.0039062,-0.017578125,-0.09375,0.3125,0.125,0.125,0.0,0.0,0.0
1696287619064,-1.0058594,-0.01953125,-0.07519531,0.0,0.0625,0.0625,0.0,0.0,0.0
1696287619092,-1.0068359,-0.017578125,-0.09765625,0.9375,0.25,0.1875,0.0,0.0,0.0
1696287619121,-1.0029297,-0.018554688,-0.08203125,-0.40625,0.0625,0.0625,0.0,0.0,0.0
1696287619185,-1.0039062,-0.0126953125,-0.080078125,0.25,0.25,0.0625,0.0,0.0,0.0
1696287619214,-1.0058594,-0.018554688,-0.080078125,0.5625,0.1875,0.3125,0.0,0.0,0.0
1696287619241,-1.0107422,-0.03125,-0.08300781,-0.25,0.5,0.0625,0.0,0.0,0.0
1696287619305,-1.0019531,-0.017578125,-0.08496094,-0.1875,-0.125,0.0,0.0,0.0,0.0
1696287619365,-0.9951172,-0.015625,-0.08886719,0.96875,0.3125,0.125,-78.625,-19.75,-201.1875
1696287619393,-1.0078125,-0.016601562,-0.059570312,-0.46875,0.125,-0.0625,0.0,0.0,0.0
1696287619422,-0.9980469,-0.016601562,-0.09375,1.28125,-0.1875,0.1875,0.0,0.0,0.0
1696287619455,-1.0107422,-0.01953125,-0.068359375,-0.96875,0.5,0.0625,0.0,0.0,0.0
1696287619483,-1.0039062,-0.0126953125,-0.08203125,0.96875,-0.125,0.1875,0.0,0.0,0.0
1696287619546,-0.99902344,-0.01171875,-0.07421875,-0.53125,0.1875,-0.0625,0.0,0.0,0.0
1696287619572,-1.0019531,-0.0146484375,-0.09082031,0.1875,0.1875,0.3125,0.0,0.0,0.0
1696287619604,-1.0078125,-0.013671875,-0.078125,0.375,0.375,-0.125,0.0,0.0,0.0
1696287619667,-1.0039062,-0.017578125,-0.083984375,-0.46875,0.1875,0.0,0.0,0.0,0.0
1696287619692,-0.99902344,-0.0078125,-0.08886719,-0.1875,0.375,0.0,0.0,0.0,0.0
1696287619751,-1.0058594,-0.018554688,-0.08300781,-0.3125,-0.0625,0.0,0.0,0.0,0.0
1696287619814,-1.0078125,-0.016601562,-0.078125,-0.46875,0.375,0.0,0.0,0.0,0.0
1696287619841,-1.0068359,-0.020507812,-0.091796875,-0.53125,-0.0625,0.0,0.0,0.0,0.0
1696287619846,-1.0097656,-0.015625,-0.08300781,0.5,0.25,0.0625,-80.375,-20.5,-202.25
1696287619903,-1.0097656,-0.016601562,-0.08691406,-0.25,0.0625,0.1875,0.0,0.0,0.0
1696287619933,-1.0097656,-0.013671875,-0.07324219,0.625,0.1875,0.125,0.0,0.0,0.0
1696287619962,-1.0029297,-0.0107421875,-0.072265625,-0.59375,0.0625,0.25,0.0,0.0,0.0
1696287620026,-1.0039062,-0.021484375,-0.08105469,0.8125,0.3125,0.125,0.0,0.0,0.0
1696287620051,-1.0078125,-0.0087890625,-0.08203125,-0.0625,0.0625,0.25,0.0,0.0,0.0
1696287620082,-1.0078125,-0.022460938,-0.07714844,0.875,0.4375,0.25,0.0,0.0,0.0
1696287620146,-1.0068359,-0.015625,-0.08691406,-0.40625,-0.0625,0.5,0.0,0.0,0.0
1696287620174,-0.99902344,-0.01953125,-0.07421875,1.34375,-0.0625,0.25,0.0,0.0,0.0
1696287620203,-1.0019531,-0.0107421875,-0.078125,-0.53125,0.5625,0.25,0.0,0.0,0.0
1696287620321,-1.0039062,-0.0107421875,-0.078125,0.375,0.0,0.125,0.0,0.0,0.0
1696287620324,-0.99121094,-0.0146484375,-0.07714844,-1.09375,0.3125,-0.125,0.0,0.0,0.0
1696287620325,-1.0166016,-0.020507812,-0.07910156,0.375,0.375,0.3125,-79.375,-19.75,-204.0625
1696287620382,-1.0039062,-0.017578125,-0.07324219,-0.78125,0.3125,0.0625,0.0,0.0,0.0
1696287620411,-1.0039062,-0.01953125,-0.08984375,-0.65625,0.125,0.0,0.0,0.0,0.0
1696287620444,-1.0068359,-0.018554688,-0.07910156,-0.65625,0.125,-0.0625,0.0,0.0,0.0
1696287620500,-1.0097656,-0.0126953125,-0.06933594,-0.34375,0.125,0.1875,0.0,0.0,0.0
1696287620529,-1.0039062,-0.022460938,-0.09277344,-0.1875,0.4375,0.0,0.0,0.0,0.0
1696287620560,-1.0068359,-0.01953125,-0.07324219,-0.3125,-0.0625,0.125,0.0,0.0,0.0
1696287620621,-1.0068359,-0.0234375,-0.07714844,0.0,0.5,0.1875,0.0,0.0,0.0
1696287620652,-1.0009766,-0.0146484375,-0.09765625,-0.0625,-0.28125,0.25,0.0,0.0,0.0
1696287620680,-1.0078125,-0.020507812,-0.08496094,0.6875,0.1875,0.4375,0.0,0.0,0.0
1696287620743,-0.99609375,-0.016601562,-0.07519531,0.5,-0.125,0.25,0.0,0.0,0.0
1696287620771,-1.0107422,-0.013671875,-0.10253906,0.1875,0.1875,0.4375,0.0,0.0,0.0
1696287620803,-1.0175781,-0.015625,-0.07421875,-0.40625,0.0,0.0,0.0,0.0,0.0
1696287620861,-0.9951172,-0.005859375,-0.08496094,0.75,0.1875,0.4375,-79.625,-19.4375,-201.625
1696287620891,-1.0166016,-0.013671875,-0.083984375,-0.96875,0.375,-0.125,0.0,0.0,0.0
1696287620922,-1.0087891,-0.015625,-0.07421875,0.5625,0.1875,0.1875,0.0,0.0,0.0
1696287620980,-1.0,-0.0087890625,-0.08984375,-0.96875,0.1875,-0.125,0.0,0.0,0.0
1696287621010,-1.0136719,-0.020507812,-0.0859375,-0.0625,0.5625,0.0625,0.0,0.0,0.0
1696287621042,-1.0078125,-0.022460938,-0.083984375,0.0,0.0,0.0625,0.0,0.0,0.0
1696287621102,-1.0097656,-0.028320312,-0.08203125,-0.3125,0.4375,0.1875,0.0,0.0,0.0
1696287621131,-1.0136719,-0.021484375,-0.07714844,0.5625,0.375,0.0625,0.0,0.0,0.0
1696287621160,-1.0048828,-0.01953125,-0.08203125,0.375,-0.1875,0.25,0.0,0.0,0.0
1696287621284,-1.0029297,-0.021484375,-0.08203125,0.0625,0.5625,0.125,0.0,0.0,0.0
1696287621285,-1.0078125,-0.021484375,-0.08984375,0.625,-0.21875,0.5,0.0,0.0,0.0
1696287621287,-1.0029297,-0.013671875,-0.07910156,-0.1875,0.5,-0.0625,0.0,0.0,0.0
1696287621342,-1.0136719,-0.015625,-0.08886719,0.375,0.0,0.3125,-81.0,-20.375,-201.0625
1696287621373,-1.0019531,-0.020507812,-0.07714844,-0.125,0.0625,0.0625,0.0,0.0,0.0
1696287621403,-1.0068359,-0.00390625,-0.07421875,-0.34375,0.25,0.0,0.0,0.0,0.0
1696287621463,-0.99902344,-0.0146484375,-0.076171875,0.1875,0.375,-0.0625,0.0,0.0,0.0
1696287621491,-1.0087891,-0.0146484375,-0.06933594,-0.65625,0.0625,-0.0625,0.0,0.0,0.0
1696287621521,-1.0039062,-0.013671875,-0.08496094,0.3125,0.0,0.1875,0.0,0.0,0.0
1696287621582,-1.0058594,-0.021484375,-0.078125,0.25,0.4375,0.0,0.0,0.0,0.0
1696287621611,-1.0029297,-0.015625,-0.083984375,0.6875,0.0625,0.3125,0.0,0.0,0.0
1696287621642,-1.0019531,-0.020507812,-0.059570312,0.0625,0.1875,0.125,0.0,0.0,0.0
1696287621702,-1.0175781,-0.005859375,-0.06933594,-0.125,-0.125,0.0625,0.0,0.0,0.0
1696287621736,-1.0048828,-0.016601562,-0.07421875,0.3125,0.1875,0.0625,0.0,0.0,0.0
1696287621761,-1.0,-0.0107421875,-0.09667969,0.1875,0.3125,0.3125,0.0,0.0,0.0
1696287621823,-1.0029297,-0.01171875,-0.07519531,-0.34375,0.0625,-0.0625,0.0,0.0,0.0
1696287621852,-1.0146484,-0.017578125,-0.08886719,0.625,0.1875,0.0625,-79.5,-20.6875,-201.0625
1696287621881,-1.0048828,-0.0126953125,-0.078125,-0.25,0.0,-0.0625,0.0,0.0,0.0
1696287621943,-1.0048828,-0.026367188,-0.07910156,-0.78125,0.1875,0.0,0.0,0.0,0.0
1696287621971,-0.9980469,-0.018554688,-0.08984375,0.0,0.125,0.0,0.0,0.0,0.0
1696287622002,-1.0039062,-0.022460938,-0.06933594,0.0625,0.5,0.1875,0.0,0.0,0.0
1696287622123,-1.0058594,-0.013671875,-0.07324219,-0.65625,-0.125,-0.1875,0.0,0.0,0.0
1696287622128,-1.0097656,-0.0146484375,-0.07324219,-0.34375,0.3125,-0.125,0.0,0.0,0.0
1696287622130,-0.99316406,-0.0126953125,-0.091796875,-0.53125,-0.1875,-0.125,0.0,0.0,0.0
1696287622211,-1.0019531,-0.018554688,-0.07324219,-0.25,0.3125,0.0,0.0,0.0,0.0
1696287622213,-1.0078125,-0.018554688,-0.08105469,0.125,0.125,-0.0625,0.0,0.0,0.0
1696287622243,-1.0087891,-0.025390625,-0.078125,-0.1875,0.25,0.125,0.0,0.0,0.0
1696287622303,-1.0029297,-0.016601562,-0.099609375,0.4375,-0.34375,0.125,0.0,0.0,0.0
1696287622335,-1.0048828,-0.025390625,-0.07910156,0.25,0.25,0.1875,-81.0,-19.3125,-201.8125
1696287622360,-1.0009766,-0.021484375,-0.087890625,0.3125,0.1875,0.125,0.0,0.0,0.0
1696287622427,-1.0019531,-0.01953125,-0.080078125,1.40625,0.0,0.4375,0.0,0.0,0.0
1696287622451,-1.0039062,-0.016601562,-0.08496094,-0.90625,0.3125,0.0,0.0,0.0,0.0
1696287622479,-0.9970703,-0.01171875,-0.08203125,1.34375,-0.125,0.3125,0.0,0.0,0.0
1696287622662,-1.0078125,-0.013671875,-0.072265625,0.0,0.3125,0.1875,0.0,0.0,0.0
1696287622666,-1.0058594,-0.0078125,-0.08984375,0.125,0.0625,0.125,0.0,0.0,0.0
1696287622667,-1.0048828,-0.0107421875,-0.08300781,0.4375,0.0,0.25,0.0,0.0,0.0
1696287622668,-1.0048828,-0.01171875,-0.0625,0.25,0.375,0.125,0.0,0.0,0.0
1696287622691,-1.0136719,-0.013671875,-0.08496094,-0.1875,0.1875,0.0,0.0,0.0,0.0
1696287622721,-1.0087891,-0.013671875,-0.076171875,-0.1875,0.1875,0.0,0.0,0.0,0.0
1696287622780,-1.0058594,-0.017578125,-0.07324219,0.0625,0.375,0.0625,0.0,0.0,0.0
1696287622811,-1.0058594,-0.018554688,-0.087890625,-0.25,-0.0625,0.1875,0.0,0.0,0.0
1696287622844,-0.9951172,-0.022460938,-0.08496094,-0.25,0.1875,0.0,-79.1875,-19.9375,-202.125
1696287622903,-1.0166016,-0.01953125,-0.0703125,-0.0625,0.25,0.25,0.0,0.0,0.0
1696287622931,-0.9941406,-0.017578125,-0.09277344,0.3125,0.0625,0.0,0.0,0.0,0.0
1696287622960,-1.0107422,-0.013671875,-0.078125,-0.25,0.3125,0.375,0.0,0.0,0.0
1696287623084,-1.0087891,-0.016601562,-0.08203125,0.1875,0.0,0.0625,0.0,0.0,0.0
1696287623086,-1.0039062,-0.01953125,-0.07421875,-0.25,0.625,0.125,0.0,0.0,0.0
1696287623087,-1.0009766,-0.01171875,-0.091796875,0.375,-0.125,0.4375,0.0,0.0,0.0
1696287623141,-1.0,-0.0087890625,-0.0703125,0.25,0.5625,0.0,0.0,0.0,0.0
1696287623170,-1.0146484,-0.0107421875,-0.09863281,-0.65625,0.0625,0.0625,0.0,0.0,0.0
1696287623201,-0.99902344,-0.0107421875,-0.087890625,0.6875,0.125,0.1875,0.0,0.0,0.0
1696287623262,-1.0058594,-0.016601562,-0.091796875,-0.59375,0.375,0.125,0.0,0.0,0.0
1696287623292,-1.0019531,-0.016601562,-0.08105469,0.9375,0.25,0.1875,0.0,0.0,0.0
1696287623323,-1.0224609,-0.013671875,-0.068359375,-0.25,0.375,0.1875,-80.125,-20.5,-201.9375
1696287623411,-1.0048828,-0.021484375,-0.080078125,0.5,0.1875,0.1875,0.0,0.0,0.0
1696287623413,-0.9951172,-0.01953125,-0.08691406,-0.3125,0.0625,0.25,0.0,0.0,0.0
1696287623441,-1.0039062,-0.021484375,-0.07324219,0.875,0.5,0.375,0.0,0.0,0.0
1696287623533,-0.99609375,-0.016601562,-0.083984375,0.5,-0.1875,0.5,0.0,0.0,0.0
1696287623535,-1.0107422,-0.021484375,-0.08203125,0.0,0.5,0.0625,0.0,0.0,0.0
1696287623562,-1.0009766,-0.022460938,-0.0859375,-0.1875,0.0625,0.25,0.0,0.0,0.0
1696287623655,-1.0146484,-0.015625,-0.0859375,0.4375,0.4375,0.125,0.0,0.0,0.0
1696287623657,-1.0107422,-0.013671875,-0.083984375,-0.71875,0.5,0.0,0.0,0.0,0.0
1696287623686,-1.0,-0.01171875,-0.099609375,-0.46875,0.0,0.0625,0.0,0.0,0.0
1696287623745,-1.0048828,-0.009765625,-0.051757812,-1.03125,0.5625,-0.0625,0.0,0.0,0.0
1696287623772,-1.0029297,-0.013671875,-0.08984375,0.5625,0.375,0.1875,0.0,0.0,0.0
1696287623807,-1.0175781,-0.020507812,-0.0546875,-0.53125,0.625,0.0,0.0,0.0,0.0
1696287623865,-1.0048828,-0.0146484375,-0.091796875,0.5625,0.25,0.25,-79.375,-21.25,-203.625
1696287623893,-1.0058594,-0.022460938,-0.06738281,-0.125,0.0625,-0.1875,0.0,0.0,0.0
1696287623921,-0.99902344,-0.020507812,-0.08496094,0.0,0.25,0.1875,0.0,0.0,0.0
1696287624014,-1.0117188,-0.013671875,-0.07324219,0.1875,0.0,0.0625,0.0,0.0,0.0
1696287624015,-1.0136719,-0.01171875,-0.080078125,0.25,0.5,0.3125,0.0,0.0,0.0
1696287624042,-1.0019531,-0.0107421875,-0.08300781,0.125,-0.0625,0.125,0.0,0.0,0.0
1696287624164,-1.0126953,-0.0107421875,-0.07324219,-0.34375,0.4375,0.125,0.0,0.0,0.0
1696287624166,-0.99121094,-0.0146484375,-0.07519531,0.75,-0.0625,0.1875,0.0,0.0,0.0
1696287624168,-1.0136719,-0.005859375,-0.06738281,0.0,0.625,0.125,0.0,0.0,0.0
1696287624224,-1.0058594,-0.018554688,-0.07519531,-0.0625,-0.0625,0.125,0.0,0.0,0.0
1696287624250,-1.0048828,-0.0146484375,-0.09277344,0.4375,0.25,0.125,0.0,0.0,0.0
1696287624283,-1.0166016,-0.016601562,-0.08496094,-0.84375,0.0625,-0.1875,0.0,0.0,0.0
1696287624348,-0.9941406,0.0029296875,-0.09863281,0.125,0.25,0.125,-79.375,-19.4375,-202.25
1696287624371,-1.015625,-0.02734375,-0.078125,-0.40625,0.1875,0.125,0.0,0.0,0.0
1696287624400,-1.0019531,-0.013671875,-0.072265625,0.0,0.25,0.0,0.0,0.0,0.0
1696287624430,-1.0029297,-0.024414062,-0.07714844,-0.3125,-0.0625,0.0,0.0,0.0,0.0
1696287624494,-0.9951172,-0.018554688,-0.09277344,-0.34375,0.25,-0.125,0.0,0.0,0.0
1696287624522,-1.0097656,-0.0126953125,-0.08886719,0.25,0.0625,0.125,0.0,0.0,0.0
1696287624551,-0.99121094,-0.001953125,-0.08691406,0.3125,0.25,-0.125,0.0,0.0,0.0
1696287624646,-1.0068359,-0.0126953125,-0.08203125,-0.1875,0.1875,0.25,0.0,0.0,0.0
1696287624647,-1.0068359,-0.0126953125,-0.07324219,-0.0625,0.125,0.0,0.0,0.0,0.0
1696287624706,-1.0,-0.0048828125,-0.095703125,0.5625,0.0625,0.0,0.0,0.0,0.0
1696287624732,-1.0087891,-0.016601562,-0.07128906,0.3125,0.25,0.0,0.0,0.0,0.0
1696287624764,-1.0087891,-0.016601562,-0.07910156,-0.40625,0.0625,-0.0625,0.0,0.0,0.0
1696287624793,-0.9921875,-0.0107421875,-0.072265625,0.0,0.125,-0.0625,0.0,0.0,0.0
1696287624854,-1.0029297,-0.017578125,-0.083984375,-0.46875,0.3125,-0.25,-80.125,-19.4375,-201.9375
1696287624882,-1.0048828,-0.020507812,-0.0859375,-0.125,0.3125,-0.125,0.0,0.0,0.0
1696287624911,-1.0068359,-0.017578125,-0.08203125,-0.59375,0.25,0.0,0.0,0.0,0.0
1696287624975,-1.0068359,-0.017578125,-0.07714844,-0.3125,0.125,-0.0625,0.0,0.0,0.0
1696287625001,-1.0068359,-0.0078125,-0.07910156,0.25,0.375,0.0625,0.0,0.0,0.0
1696287625034,-0.9980469,-0.0107421875,-0.07324219,0.25,-0.21875,0.0,0.0,0.0,0.0
1696287625092,-1.0087891,-0.0107421875,-0.08105469,0.25,0.4375,0.125,0.0,0.0,0.0
1696287625121,-0.99609375,-0.020507812,-0.08105469,0.5625,-0.21875,0.125,0.0,0.0,0.0
1696287625151,-1.0166016,-0.015625,-0.087890625,0.25,0.625,0.125,0.0,0.0,0.0
1696287625215,-1.0097656,-0.017578125,-0.091796875,0.0625,-0.125,0.0,0.0,0.0,0.0
1696287625242,-1.0117188,-0.015625,-0.07714844,0.8125,0.25,0.0625,0.0,0.0,0.0
1696287625271,-0.99316406,-0.0078125,-0.08886719,-1.28125,0.1875,-0.0625,0.0,0.0,0.0
1696287625337,-1.0136719,-0.0107421875,-0.09667969,0.9375,0.5,0.0625,-80.875,-20.5,-202.25
1696287625362,-1.0097656,-0.020507812,-0.06933594,-1.03125,0.125,0.0,0.0,0.0,0.0
1696287625391,-1.0097656,-0.018554688,-0.08105469,-0.125,0.5,-0.25,0.0,0.0,0.0
1696287625517,-1.0019531,-0.013671875,-0.08496094,-0.46875,-0.0625,0.0,0.0,0.0,0.0
1696287625545,-0.99902344,-0.013671875,-0.08203125,0.0625,0.375,0.0625,0.0,0.0,0.0
1696287625547,-1.0048828,-0.017578125,-0.07910156,-0.65625,0.1875,0.0,0.0,0.0,0.0
1696287625572,-1.0136719,-0.016601562,-0.078125,0.5625,0.0625,0.125,0.0,0.0,0.0
1696287625602,-1.0048828,-0.01171875,-0.095703125,-1.21875,0.1875,-0.3125,0.0,0.0,0.0
1696287625635,-1.0087891,-0.018554688,-0.080078125,1.15625,0.0,0.4375,0.0,0.0,0.0
1696287625693,-1.0058594,-0.015625,-0.078125,0.25,0.3125,0.125,0.0,0.0,0.0
1696287625724,-1.0058594,-0.021484375,-0.09667969,0.625,0.0625,0.25,0.0,0.0,0.0
1696287625750,-0.9980469,-0.0048828125,-0.078125,-0.34375,0.0625,0.0625,0.0,0.0,0.0
1696287625815,-1.0048828,-0.016601562,-0.107421875,0.5625,0.25,0.1875,0.0,0.0,0.0
1696287625842,-1.0087891,-0.01953125,-0.09082031,-0.125,0.1875,0.0,-80.25,-19.9375,-201.5
1696287625872,-1.0,-0.0048828125,-0.080078125,-0.34375,-0.125,0.125,0.0,0.0,0.0
1696287626088,-1.0039062,-0.015625,-0.072265625,0.0625,0.5,-0.0625,0.0,0.0,0.0
1696287626091,-1.0068359,-0.017578125,-0.08203125,-0.125,0.0625,0.125,0.0,0.0,0.0
1696287626092,-1.0136719,-0.0126953125,-0.08886719,0.25,0.4375,0.0625,0.0,0.0,0.0
1696287626093,-1.0087891,-0.0126953125,-0.083984375,-0.71875,-0.0625,-0.0625,0.0,0.0,0.0
1696287626095,-1.0087891,-0.013671875,-0.080078125,0.96875,0.25,0.0625,0.0,0.0,0.0
1696287626111,-1.0048828,-0.01953125,-0.06640625,-0.78125,0.125,0.0,0.0,0.0,0.0
1696287626178,-1.0126953,-0.0146484375,-0.08496094,0.375,0.0,0.125,0.0,0.0,0.0
1696287626202,-1.0,-0.0048828125,-0.07519531,-0.53125,0.0,0.125,0.0,0.0,0.0
1696287626234,-1.0117188,-0.017578125,-0.09472656,0.3125,0.0,0.0,0.0,0.0,0.0
1696287626297,-1.0068359,-0.0087890625,-0.08886719,-0.78125,-0.0625,0.0625,0.0,0.0,0.0
1696287626319,-1.0068359,-0.0234375,-0.08300781,0.5625,0.25,0.125,-80.25,-19.3125,-202.125
1696287626353,-1.0068359,-0.0078125,-0.08984375,0.125,0.1875,0.125,0.0,0.0,0.0
1696287626478,-1.0039062,-0.025390625,-0.07910156,-0.0625,0.1875,-0.0625,0.0,0.0,0.0
1696287626480,-1.0117188,-0.0068359375,-0.07519531,-0.40625,0.375,-0.0625,0.0,0.0,0.0
1696287626482,-1.015625,-0.01953125,-0.08886719,-0.0625,-0.0625,0.125,0.0,0.0,0.0
1696287626532,-1.0019531,-0.013671875,-0.06738281,-0.25,0.0625,0.125,0.0,0.0,0.0
1696287626563,-1.0068359,-0.022460938,-0.09277344,-0.46875,-0.21875,0.1875,0.0,0.0,0.0
1696287626591,-1.0087891,-0.016601562,-0.07714844,0.125,0.3125,0.125,0.0,0.0,0.0
1696287626654,-1.0029297,-0.0146484375,-0.07324219,-0.0625,-0.0625,0.1875,0.0,0.0,0.0
1696287626682,-1.0107422,-0.0146484375,-0.07519531,0.3125,0.1875,0.125,0.0,0.0,0.0
1696287626714,-1.0029297,-0.015625,-0.0859375,-0.1875,0.25,0.1875,0.0,0.0,0.0
1696287626776,-1.0039062,-0.017578125,-0.07421875,1.09375,0.1875,0.4375,0.0,0.0,0.0
1696287626801,-1.0048828,-0.013671875,-0.06542969,-0.125,0.4375,0.0,0.0,0.0,0.0
1696287626837,-1.0019531,-0.0126953125,-0.08203125,-0.0625,-0.1875,0.25,-80.5625,-20.9375,-201.0625
1696287626897,-0.9941406,-0.0126953125,-0.06738281,0.0,0.8125,-0.0625,0.0,0.0,0.0
1696287626923,-1.0097656,-0.009765625,-0.09277344,-0.0625,0.0625,0.1875,0.0,0.0,0.0
1696287626984,-0.9980469,-0.015625,-0.07421875,0.25,0.25,0.0625,0.0,0.0,0.0
1696287627010,-1.0058594,-0.016601562,-0.08691406,-0.84375,0.125,0.0,0.0,0.0,0.0
1696287627044,-1.0029297,-0.016601562,-0.08984375,-0.0625,0.125,-0.0625,0.0,0.0,0.0
1696287627075,-1.0058594,-0.0078125,-0.083984375,-0.53125,0.25,0.0,0.0,0.0,0.0
1696287627134,-1.0048828,-0.0078125,-0.08300781,-0.0625,0.375,0.0,0.0,0.0,0.0
1696287627163,-1.0087891,-0.015625,-0.07714844,-0.53125,0.25,0.0,0.0,0.0,0.0
1696287627194,-1.0097656,-0.017578125,-0.08203125,-0.0625,0.1875,-0.0625,0.0,0.0,0.0
1696287627257,-1.0039062,-0.013671875,-0.083984375,-0.71875,0.4375,-0.1875,0.0,0.0,0.0
1696287627281,-1.0029297,-0.015625,-0.09765625,-0.1875,0.125,0.1875,0.0,0.0,0.0
1696287627312,-1.0019531,-0.022460938,-0.078125,0.5,0.6875,0.0625,-79.0625,-20.8125,-203.0
1696287627526,-1.0078125,-0.005859375,-0.083984375,-0.46875,-0.0625,0.125,0.0,0.0,0.0
1696287627528,-1.0068359,-0.009765625,-0.08984375,0.1875,0.5625,0.0,0.0,0.0,0.0
1696287627532,-0.99316406,-0.017578125,-0.08496094,0.25,-0.0625,0.1875,0.0,0.0,0.0
1696287627533,-1.0048828,-0.01171875,-0.06738281,0.96875,0.5,0.25,0.0,0.0,0.0
1696287627534,-1.0048828,-0.009765625,-0.07519531,-0.59375,0.0625,0.0625,0.0,0.0,0.0
1696287627551,-0.9970703,-0.0146484375,-0.087890625,0.6875,0.3125,0.0625,0.0,0.0,0.0
1696287627613,-1.0029297,-0.01171875,-0.09277344,-0.40625,-0.0625,0.0,0.0,0.0,0.0
1696287627642,-0.9951172,-0.0234375,-0.09277344,0.75,0.25,0.125,0.0,0.0,0.0
1696287627686,-1.0019531,-0.0146484375,-0.083984375,-0.53125,0.4375,0.0,0.0,0.0,0.0
1696287627732,-1.0068359,-0.0087890625,-0.068359375,0.96875,0.125,0.25,0.0,0.0,0.0
1696287627764,-1.0048828,-0.0146484375,-0.07324219,-0.25,0.3125,0.0,0.0,0.0,0.0
1696287627790,-1.0039062,-0.015625,-0.07421875,0.3125,0.0625,0.25,0.0,0.0,0.0
1696287627971,-1.0068359,-0.0146484375,-0.076171875,-0.3125,0.25,-0.0625,-79.0625,-18.4375,-203.3125
1696287627974,-0.9951172,-0.015625,-0.0703125,0.9375,0.0,0.0625,0.0,0.0,0.0
1696287627975,-1.0136719,-0.015625,-0.08691406,-0.3125,0.25,0.0625,0.0,0.0,0.0
1696287627976,-1.0078125,-0.013671875,-0.07714844,0.0,0.25,0.0,0.0,0.0,0.0
1696287628001,-0.99609375,-0.0126953125,-0.091796875,0.4375,0.0,-0.0625,0.0,0.0,0.0
1696287628033,-1.0068359,-0.018554688,-0.072265625,0.3125,0.375,0.1875,0.0,0.0,0.0
1696287628095,-1.0009766,-0.0146484375,-0.07519531,-0.40625,0.0625,-0.1875,0.0,0.0,0.0
1696287628121,-1.0107422,-0.016601562,-0.07324219,-0.0625,0.25,0.0,0.0,0.0,0.0
1696287628156,-1.0078125,-0.01953125,-0.08691406,-0.65625,0.1875,-0.25,0.0,0.0,0.0
1696287628216,-1.0126953,-0.017578125,-0.07910156,-0.40625,0.25,-0.1875,0.0,0.0,0.0
1696287628242,-1.0029297,-0.013671875,-0.07324219,-0.3125,0.1875,-0.125,0.0,0.0,0.0
1696287628272,-1.0126953,-0.013671875,-0.08105469,-0.40625,0.125,-0.0625,0.0,0.0,0.0
1696287628334,-1.0048828,-0.0146484375,-0.09082031,0.125,0.25,0.0,-79.375,-19.75,-201.625
1696287628359,-1.0097656,-0.017578125,-0.07128906,0.0,-0.28125,0.0625,0.0,0.0,0.0
1696287628395,-1.0107422,-0.01953125,-0.078125,-0.0625,0.25,0.125,0.0,0.0,0.0
1696287628486,-1.0039062,-0.0068359375,-0.08203125,1.03125,-0.53125,0.1875,0.0,0.0,0.0
1696287628490,-1.0146484,-0.016601562,-0.08203125,0.625,0.3125,0.25,0.0,0.0,0.0
1696287628514,-0.9980469,-0.0126953125,-0.076171875,-0.0625,0.0,0.0,0.0,0.0,0.0
1696287628572,-1.0078125,0.00390625,-0.07714844,0.96875,0.0625,0.1875,0.0,0.0,0.0
1696287628602,-1.0117188,-0.0078125,-0.0703125,-0.71875,0.125,-0.1875,0.0,0.0,0.0
1696287628630,-1.0058594,-0.0087890625,-0.087890625,0.3125,-0.125,0.25,0.0,0.0,0.0
1696287628696,-1.0068359,-0.026367188,-0.078125,-0.1875,0.1875,-0.25,0.0,0.0,0.0
1696287628721,-1.0019531,-0.01171875,-0.095703125,-0.78125,0.3125,-0.1875,0.0,0.0,0.0
1696287628752,-1.0048828,-0.018554688,-0.07910156,-0.53125,0.0625,-0.1875,0.0,0.0,0.0
1696287628936,-1.0009766,-0.0234375,-0.087890625,-0.34375,0.3125,0.0625,0.0,0.0,0.0
1696287628940,-1.0078125,-0.016601562,-0.08496094,-0.53125,0.1875,-0.125,-79.625,-19.75,-201.9375
1696287628941,-1.0078125,-0.013671875,-0.06347656,0.125,0.375,0.125,0.0,0.0,0.0
1696287628943,-1.0068359,-0.01953125,-0.08203125,0.125,0.0,0.0625,0.0,0.0,0.0
1696287628962,-1.0166016,-0.0234375,-0.076171875,0.75,0.25,0.1875,0.0,0.0,0.0
1696287628993,-0.99902344,-0.0078125,-0.08691406,0.6875,-0.0625,0.1875,0.0,0.0,0.0
1696287629051,-0.99902344,-0.0146484375,-0.07128906,0.0,0.25,0.0,0.0,0.0,0.0
1696287629082,-1.0019531,-0.01171875,-0.07519531,0.4375,0.0,0.0625,0.0,0.0,0.0
1696287629113,-1.0087891,-0.0068359375,-0.07324219,0.0625,0.25,0.0625,0.0,0.0,0.0
1696287629175,-1.0,-0.0146484375,-0.07714844,-0.71875,-0.125,-0.1875,0.0,0.0,0.0
1696287629202,-1.0048828,-0.016601562,-0.07519531,0.125,0.125,0.0625,0.0,0.0,0.0
1696287629267,-1.0068359,-0.016601562,-0.07910156,-0.34375,0.375,-0.0625,0.0,0.0,0.0
1696287629291,-1.0039062,-0.021484375,-0.08105469,0.25,0.125,0.125,0.0,0.0,0.0
1696287629323,-1.0068359,-0.017578125,-0.072265625,-0.65625,0.4375,-0.25,-79.625,-20.5,-201.625
1696287629354,-1.0019531,-0.0126953125,-0.07910156,0.375,0.1875,0.3125,0.0,0.0,0.0
1696287629413,-1.0097656,-0.020507812,-0.087890625,0.0,0.375,0.0,0.0,0.0,0.0
1696287629443,-0.99902344,-0.01953125,-0.087890625,-0.25,0.0,-0.0625,0.0,0.0,0.0
1696287629473,-1.0019531,-0.0107421875,-0.07421875,0.125,0.3125,0.125,0.0,0.0,0.0
1696287629536,-1.0029297,-0.0068359375,-0.080078125,0.375,-0.125,0.0625,0.0,0.0,0.0
1696287629561,-1.0058594,-0.005859375,-0.09277344,0.3125,0.1875,0.125,0.0,0.0,0.0
1696287629599,-1.0117188,-0.0234375,-0.09765625,-0.65625,-0.1875,0.0,0.0,0.0,0.0
1696287629650,-0.99902344,-0.001953125,-0.08984375,-0.0625,0.3125,0.125,0.0,0.0,0.0
1696287629683,-1.0039062,-0.017578125,-0.078125,-0.53125,0.1875,-0.0625,0.0,0.0,0.0
1696287629710,-1.0126953,-0.0078125,-0.07714844,-0.125,0.5625,0.0,0.0,0.0,0.0
1696287629836,-0.9970703,-0.009765625,-0.080078125,-0.0625,-0.21875,0.0625,0.0,0.0,0.0
1696287629838,-1.0019531,-0.01953125,-0.08496094,-0.34375,0.5,-0.0625,0.0,0.0,0.0
1696287629839,-1.0009766,-0.018554688,-0.080078125,-0.1875,0.0625,0.0625,-78.875,-20.6875,-201.5
1696287629922,-1.0048828,-0.01953125,-0.083984375,0.0625,0.0625,0.0625,0.0,0.0,0.0
1696287629924,-1.0029297,-0.01171875,-0.080078125,-0.59375,0.25,0.0625,0.0,0.0,0.0
1696287629953,-1.0039062,-0.0107421875,-0.09082031,0.4375,-0.125,0.3125,0.0,0.0,0.0
1696287630012,-1.0068359,-0.00390625,-0.07519531,-0.53125,0.25,0.0,0.0,0.0,0.0
1696287630045,-1.0058594,-0.016601562,-0.10253906,0.75,-0.21875,0.375,0.0,0.0,0.0
1696287630071,-0.9970703,-0.016601562,-0.07519531,0.0,0.25,-0.125,0.0,0.0,0.0
1696287630137,-1.0126953,0.0,-0.08691406,-0.125,0.0625,0.1875,0.0,0.0,0.0
1696287630162,-1.0058594,-0.0068359375,-0.08300781,-0.0625,0.0,0.0,0.0,0.0,0.0
1696287630192,-1.0058594,-0.017578125,-0.08886719,-0.125,0.25,0.1875,0.0,0.0,0.0
1696287630256,-1.0126953,-0.0107421875,-0.080078125,-0.25,0.3125,-0.0625,0.0,0.0,0.0
1696287630282,-1.0087891,-0.0126953125,-0.09082031,-0.46875,0.0625,0.0625,0.0,0.0,0.0
1696287630312,-1.0029297,-0.009765625,-0.08886719,-0.125,0.375,-0.1875,-80.125,-21.5625,-202.25
1696287630375,-0.9980469,-0.0126953125,-0.07519531,-0.53125,-0.0625,0.125,0.0,0.0,0.0
1696287630401,-1.0029297,-0.0107421875,-0.080078125,0.0,0.5,-0.0625,0.0,0.0,0.0
1696287630434,-1.0146484,-0.01171875,-0.07910156,-0.46875,0.0,0.125,0.0,0.0,0.0
1696287630498,-1.0087891,-0.015625,-0.08203125,0.375,0.25,0.0625,0.0,0.0,0.0
1696287630523,-1.0048828,-0.013671875,-0.091796875,-0.59375,0.0,-0.0625,0.0,0.0,0.0
1696287630552,-1.0097656,-0.020507812,-0.07714844,0.5,0.0,0.375,0.0,0.0,0.0
1696287630616,-1.0009766,-0.01171875,-0.0703125,0.0,0.25,-0.0625,0.0,0.0,0.0
1696287630641,-1.0087891,-0.0146484375,-0.07421875,0.1875,-0.28125,0.3125,0.0,0.0,0.0
1696287630672,-1.015625,-0.021484375,-0.08300781,-0.65625,0.0,-0.125,0.0,0.0,0.0
1696287630736,-0.99902344,-0.0048828125,-0.087890625,0.75,-0.28125,0.125,0.0,0.0,0.0
1696287630765,-1.0078125,-0.015625,-0.068359375,0.6875,-0.28125,0.1875,0.0,0.0,0.0
1696287630791,-1.0117188,-0.01953125,-0.07910156,0.5,-0.34375,0.0625,0.0,0.0,0.0
1696287630854,-1.0039062,-0.0146484375,-0.068359375,1.40625,-0.59375,0.5,-80.25,-20.6875,-203.4375
1696287630882,-1.0039062,-0.0126953125,-0.087890625,0.125,-0.0625,0.0,0.0,0.0,0.0
1696287630912,-1.0068359,-0.013671875,-0.06542969,0.1875,-0.34375,0.0625,0.0,0.0,0.0
1696287630977,-1.0039062,-0.0087890625,-0.06933594,-0.0625,-0.34375,-0.0625,0.0,0.0,0.0
1696287631006,-1.0009766,-9.765625E-4,-0.076171875,-1.6875,0.4375,-0.40625,0.0,0.0,0.0
1696287631031,-1.0,-0.021484375,-0.07324219,0.6875,0.0,0.0625,0.0,0.0,0.0
1696287631129,-1.015625,-0.0107421875,-0.06542969,-1.28125,0.8125,-0.25,0.0,0.0,0.0
1696287631131,-1.0039062,-0.01953125,-0.07128906,-0.0625,-0.21875,0.1875,0.0,0.0,0.0
1696287631153,-1.0117188,-0.016601562,-0.07714844,0.3125,0.4375,-0.0625,0.0,0.0,0.0
1696287631335,-1.0078125,-0.01953125,-0.08203125,-0.34375,0.4375,0.0,0.0,0.0,0.0
1696287631337,-1.0087891,-0.016601562,-0.07519531,0.625,0.375,0.125,0.0,0.0,0.0
1696287631340,-1.0097656,-0.016601562,-0.087890625,-0.65625,-0.1875,-0.1875,0.0,0.0,0.0
1696287631343,-1.0039062,-0.017578125,-0.107421875,-0.0625,-0.53125,-0.1875,-79.9375,-20.375,-201.8125
1696287631361,-1.0078125,-0.005859375,-0.0703125,-0.71875,-1.5625,-0.0625,0.0,0.0,0.0
1696287631392,-1.0058594,-0.016601562,-0.072265625,1.09375,-1.15625,0.375,0.0,0.0,0.0
1696287631454,-1.0058594,-0.017578125,-0.07421875,-1.34375,-0.53125,-0.0625,0.0,0.0,0.0
1696287631481,-0.9980469,-0.020507812,-0.07324219,0.5625,0.3125,-0.0625,0.0,0.0,0.0
1696287631545,-1.0097656,-0.0126953125,-0.07324219,-0.65625,0.5,-0.0625,0.0,0.0,0.0
1696287631572,-1.0,-0.0126953125,-0.07128906,0.75,0.625,0.0625,0.0,0.0,0.0
1696287631604,-1.0009766,-0.021484375,-0.072265625,-0.46875,0.375,-0.1875,0.0,0.0,0.0
1696287631633,-1.0039062,-0.0078125,-0.080078125,-0.0625,0.375,0.0625,0.0,0.0,0.0
1696287631691,-1.0087891,-0.01171875,-0.078125,0.25,0.5625,0.0,0.0,0.0,0.0
1696287631722,-1.0058594,-0.013671875,-0.07714844,-0.25,0.125,0.0,0.0,0.0,0.0
1696287631755,-1.0117188,-0.0107421875,-0.06933594,-0.25,0.25,0.125,0.0,0.0,0.0
1696287631816,-1.0009766,-0.017578125,-0.07128906,-0.40625,0.1875,-0.0625,0.0,0.0,0.0
1696287631844,-1.0097656,-0.0068359375,-0.080078125,0.5,0.5625,0.125,-79.9375,-20.9375,-202.375
1696287631872,-1.0058594,-0.0087890625,-0.07421875,-0.71875,0.125,-0.125,0.0,0.0,0.0
1696287631934,-1.0048828,-0.016601562,-0.072265625,-0.46875,0.375,0.0,0.0,0.0,0.0
1696287631961,-1.0019531,-0.016601562,-0.07519531,0.875,0.1875,0.25,0.0,0.0,0.0
1696287631992,-1.0078125,-0.024414062,-0.08203125,-0.125,0.375,-0.0625,0.0,0.0,0.0
1696287632055,-1.0087891,-0.01171875,-0.07714844,0.125,0.5,0.125,0.0,0.0,0.0
1696287632081,-0.9980469,-0.020507812,-0.08300781,0.875,0.0625,0.1875,0.0,0.0,0.0
1696287632113,-1.0126953,-0.026367188,-0.0625,0.625,0.375,0.1875,0.0,0.0,0.0
1696287632172,-1.0019531,-0.0126953125,-0.07714844,0.4375,-0.1875,0.125,0.0,0.0,0.0
1696287632202,-1.0087891,-0.009765625,-0.07421875,0.0625,0.375,0.125,0.0,0.0,0.0
1696287632231,-1.0097656,-0.009765625,-0.08203125,0.875,0.1875,0.1875,0.0,0.0,0.0
1696287632289,-1.0078125,-0.0126953125,-0.06933594,0.4375,0.5,0.125,0.0,0.0,0.0
1696287632320,-1.0048828,-0.021484375,-0.064453125,-0.84375,0.0625,-0.125,-79.375,-20.0625,-201.9375
1696287632352,-1.0087891,-0.009765625,-0.083984375,0.5625,0.375,0.125,0.0,0.0,0.0
1696287632412,-1.0087891,-0.0087890625,-0.060546875,-0.96875,0.375,-0.125,0.0,0.0,0.0
1696287632471,-1.0087891,-0.0126953125,-0.08496094,0.0,0.4375,-0.125,0.0,0.0,0.0
1696287632474,-1.0078125,-0.021484375,-0.07910156,0.1875,0.25,0.0625,0.0,0.0,0.0
1696287632531,-1.0087891,-0.018554688,-0.08300781,-0.78125,0.5,-0.125,0.0,0.0,0.0
1696287632560,-0.99609375,-0.022460938,-0.07519531,0.1875,0.3125,0.0,0.0,0.0,0.0
1696287632591,-1.0136719,-0.0107421875,-0.05859375,0.3125,0.375,0.1875,0.0,0.0,0.0
1696287632680,-1.0097656,-0.022460938,-0.087890625,0.125,0.1875,0.1875,0.0,0.0,0.0
1696287632681,-1.0029297,-0.017578125,-0.06347656,0.1875,0.3125,0.125,0.0,0.0,0.0
1696287632710,-1.0097656,-0.029296875,-0.076171875,0.25,0.25,0.125,0.0,0.0,0.0
1696287632806,-1.0039062,-0.0146484375,-0.06347656,0.8125,0.375,0.0,0.0,0.0,0.0
1696287632809,-0.9970703,-0.01171875,-0.05859375,1.09375,0.125,0.3125,0.0,0.0,0.0
1696287632831,-0.99902344,-0.0126953125,-0.07324219,-0.59375,0.1875,0.0,-80.375,-19.75,-200.875
1696287632862,-1.0068359,-0.0126953125,-0.06933594,0.5625,0.125,0.3125,0.0,0.0,0.0
1696287632923,-0.9980469,-0.018554688,-0.0625,0.4375,0.4375,0.1875,0.0,0.0,0.0
1696287632951,-1.0097656,-0.01171875,-0.07324219,-0.65625,0.0,-0.0625,0.0,0.0,0.0
1696287632984,-0.9970703,-0.01953125,-0.07519531,0.3125,0.8125,0.125,0.0,0.0,0.0
1696287633046,-1.0058594,-0.0107421875,-0.07324219,-0.1875,0.3125,0.1875,0.0,0.0,0.0
1696287633071,-1.0126953,-0.020507812,-0.091796875,-0.1875,0.375,0.0625,0.0,0.0,0.0
1696287633104,-1.0097656,-0.020507812,-0.07128906,-0.1875,0.0625,0.25,0.0,0.0,0.0
1696287633165,-1.0068359,-0.018554688,-0.09667969,0.5,0.125,0.1875,0.0,0.0,0.0
1696287633193,-1.0039062,-0.018554688,-0.064453125,0.0625,0.5,0.0,0.0,0.0,0.0
1696287633222,-1.0068359,-0.0146484375,-0.078125,0.5,0.5,0.0625,0.0,0.0,0.0
1696287633286,-1.015625,-0.013671875,-0.08203125,0.125,0.3125,0.0625,0.0,0.0,0.0
1696287633311,-0.99316406,-0.0048828125,-0.06542969,0.5,-0.0625,0.0,-79.0625,-19.0,-201.625
1696287633343,-0.9980469,0.0,-0.07910156,-0.84375,0.25,0.0,0.0,0.0,0.0
1696287633405,-1.0087891,-0.015625,-0.07324219,0.125,0.0625,0.0,0.0,0.0,0.0
1696287633434,-1.0019531,-0.018554688,-0.07519531,-0.78125,-0.34375,-0.1875,0.0,0.0,0.0
1696287633462,-1.0,-0.0146484375,-0.06542969,-1.40625,-0.0625,-0.3125,0.0,0.0,0.0
1696287633523,-0.9980469,-0.013671875,-0.06347656,-1.46875,-0.28125,-0.25,0.0,0.0,0.0
1696287633553,-1.0,-0.01953125,-0.055664062,-0.78125,0.625,-0.25,0.0,0.0,0.0
1696287633594,-0.99609375,-0.013671875,-0.0703125,-0.3125,0.625,-0.0625,0.0,0.0,0.0
1696287633646,-1.0136719,-0.017578125,-0.0859375,0.875,0.1875,0.25,0.0,0.0,0.0
1696287633673,-1.0019531,-0.025390625,-0.08691406,0.1875,-0.21875,0.0625,0.0,0.0,0.0
1696287633703,-1.0048828,-0.013671875,-0.072265625,0.0625,-0.21875,0.1875,0.0,0.0,0.0
1696287633764,-1.0009766,-0.013671875,-0.07324219,1.09375,0.0,0.1875,0.0,0.0,0.0
1696287633826,-1.0146484,-0.0126953125,-0.07714844,0.25,0.125,0.3125,0.0,0.0,0.0
1696287633828,-1.0048828,-0.016601562,-0.07421875,0.4375,0.0,0.125,-81.3125,-19.625,-201.0625
1696287633883,-0.99902344,-0.0078125,-0.06738281,0.3125,0.0625,0.1875,0.0,0.0,0.0
1696287633916,-1.0078125,-0.017578125,-0.07519531,-0.40625,0.625,-0.125,0.0,0.0,0.0
1696287633945,-1.0048828,-0.00390625,-0.068359375,-0.65625,0.25,0.125,0.0,0.0,0.0
1696287634069,-1.0,-0.0107421875,-0.06347656,0.0,0.5,-0.0625,0.0,0.0,0.0
1696287634071,-1.0087891,-0.017578125,-0.08691406,-0.90625,1.0,0.0,0.0,0.0,0.0
1696287634073,-0.99902344,-0.0126953125,-0.08496094,0.0,0.3125,0.0625,0.0,0.0,0.0
1696287634121,-1.0058594,-0.018554688,-0.060546875,-0.0625,0.875,0.125,0.0,0.0,0.0
1696287634150,-1.0019531,-0.013671875,-0.083984375,0.0,0.25,0.125,0.0,0.0,0.0
1696287634184,-1.0166016,-0.017578125,-0.056640625,0.5625,0.4375,0.1875,0.0,0.0,0.0
1696287634246,-1.0029297,-0.021484375,-0.08203125,0.375,0.125,0.0625,0.0,0.0,0.0
1696287634273,-1.0039062,-0.0234375,-0.0703125,1.21875,0.25,0.125,0.0,0.0,0.0
1696287634303,-0.9941406,-0.0126953125,-0.07324219,0.5625,0.0,0.0625,-79.5,-19.9375,-202.875
1696287634368,-1.015625,-0.0126953125,-0.08300781,0.8125,0.375,0.5625,0.0,0.0,0.0
1696287634390,-0.9980469,-0.0068359375,-0.072265625,1.53125,-0.28125,0.3125,0.0,0.0,0.0
1696287634425,-1.0078125,-0.021484375,-0.08300781,-0.46875,0.3125,0.25,0.0,0.0,0.0
1696287634487,-1.0048828,-0.015625,-0.08496094,-0.34375,0.25,-0.0625,0.0,0.0,0.0
1696287634511,-1.0087891,-0.005859375,-0.08886719,0.375,0.1875,0.125,0.0,0.0,0.0
1696287634542,-1.0,-0.0126953125,-0.078125,-1.53125,0.625,-0.3125,0.0,0.0,0.0
1696287634607,-0.9951172,-0.018554688,-0.07519531,-0.0625,0.375,0.125,0.0,0.0,0.0
1696287634633,-1.0087891,-0.0126953125,-0.06738281,-0.65625,0.5,-0.125,0.0,0.0,0.0
1696287634662,-1.0117188,-0.021484375,-0.08105469,0.25,0.5,0.0625,0.0,0.0,0.0
1696287634725,-1.0039062,-0.022460938,-0.08105469,-0.1875,-0.125,-0.0625,0.0,0.0,0.0
1696287634752,-1.0058594,-0.0087890625,-0.07714844,0.1875,0.5625,0.0625,0.0,0.0,0.0
1696287634781,-1.0,0.0,-0.064453125,0.0625,0.1875,0.0625,0.0,0.0,0.0
1696287634854,-1.0117188,-0.015625,-0.08496094,1.03125,0.1875,0.25,-80.25,-19.9375,-201.5
1696287634870,-0.9970703,-0.0087890625,-0.080078125,0.3125,0.1875,0.0625,0.0,0.0,0.0
1696287634901,-1.0058594,-0.0048828125,-0.083984375,0.0,0.5625,0.0625,0.0,0.0,0.0
1696287634966,-1.0,-0.0087890625,-0.059570312,0.75,0.375,0.0625,0.0,0.0,0.0
1696287634993,-1.0097656,-0.020507812,-0.087890625,0.25,0.8125,0.125,0.0,0.0,0.0
1696287635023,-1.0058594,-0.017578125,-0.080078125,0.0,0.25,-0.125,0.0,0.0,0.0
1696287635088,-1.0048828,-0.0048828125,-0.0625,0.4375,0.3125,-0.0625,0.0,0.0,0.0
1696287635111,-0.99902344,-0.020507812,-0.08300781,0.25,0.4375,0.0625,0.0,0.0,0.0
1696287635145,-1.0048828,-0.009765625,-0.083984375,-0.59375,0.3125,-0.1875,0.0,0.0,0.0
1696287635206,-1.0117188,-0.016601562,-0.06933594,1.03125,0.25,0.125,0.0,0.0,0.0
1696287635231,-1.0019531,-0.013671875,-0.08496094,0.0625,0.125,0.125,0.0,0.0,0.0
1696287635262,-1.0019531,-0.01171875,-0.07128906,0.625,0.3125,0.0625,0.0,0.0,0.0
1696287635325,-1.0,-0.018554688,-0.07519531,0.0,0.1875,0.125,-78.875,-20.6875,-202.375
1696287635352,-1.0078125,-0.015625,-0.08691406,0.3125,0.4375,0.0,0.0,0.0,0.0
1696287635382,-1.0,-0.020507812,-0.076171875,0.25,0.375,0.0,0.0,0.0,0.0
1696287635446,-1.0048828,-0.0146484375,-0.08496094,-0.125,0.3125,0.0625,0.0,0.0,0.0
1696287635473,-0.99121094,-0.0068359375,-0.08203125,0.75,0.375,0.125,0.0,0.0,0.0
1696287635499,-1.0097656,-0.0126953125,-0.06933594,0.25,0.4375,0.0,0.0,0.0,0.0
1696287635565,-1.0097656,-0.015625,-0.06933594,-0.125,0.3125,0.125,0.0,0.0,0.0
1696287635591,-0.9970703,-0.025390625,-0.07324219,0.0625,0.1875,-0.0625,0.0,0.0,0.0
1696287635623,-1.0214844,-0.01171875,-0.07421875,0.0,0.375,0.3125,0.0,0.0,0.0
1696287635683,-1.0078125,-0.0146484375,-0.078125,0.0625,0.4375,-0.0625,0.0,0.0,0.0
1696287635713,-1.0087891,-0.0087890625,-0.06738281,-0.53125,0.4375,0.0,0.0,0.0,0.0
1696287635743,-1.0048828,-0.015625,-0.060546875,0.5,0.25,0.125,0.0,0.0,0.0
1696287635805,-1.0039062,-0.009765625,-0.07421875,-0.53125,0.625,-0.0625,0.0,0.0,0.0
1696287635832,-1.0,-0.0068359375,-0.06738281,0.25,0.0625,0.0625,-79.1875,-18.125,-201.8125
1696287635864,-1.0029297,-0.015625,-0.078125,0.1875,0.3125,0.1875,0.0,0.0,0.0
1696287636013,-1.0087891,-0.021484375,-0.08496094,-0.3125,0.125,0.0625,0.0,0.0,0.0
1696287636015,-1.0,-0.015625,-0.06933594,-0.125,0.0,0.1875,0.0,0.0,0.0
1696287636017,-1.0107422,-0.01953125,-0.064453125,0.4375,0.125,0.4375,0.0,0.0,0.0
1696287636044,-1.0019531,-0.01171875,-0.06640625,0.75,0.1875,0.1875,0.0,0.0,0.0
1696287636105,-1.0087891,-0.0126953125,-0.076171875,0.0,0.4375,0.1875,0.0,0.0,0.0
1696287636108,-1.0058594,-0.0087890625,-0.08886719,-0.1875,0.4375,0.0,0.0,0.0,0.0
1696287636162,-1.0058594,-0.0068359375,-0.083984375,0.375,0.375,0.3125,0.0,0.0,0.0
1696287636190,-1.0126953,-0.01171875,-0.076171875,-0.25,0.625,0.0,0.0,0.0,0.0
1696287636225,-1.0,-0.0087890625,-0.072265625,0.375,-0.0625,0.3125,0.0,0.0,0.0
1696287636287,-1.0039062,-0.0087890625,-0.087890625,-0.125,0.375,0.0625,0.0,0.0,0.0
1696287636312,-1.0087891,-0.005859375,-0.06933594,-0.34375,0.125,0.0,0.0,0.0,0.0
1696287636341,-1.0087891,-0.0126953125,-0.06933594,0.4375,0.4375,0.0625,-78.625,-19.0,-202.25
1696287636494,-1.015625,-0.0048828125,-0.07421875,-0.78125,0.375,0.0625,0.0,0.0,0.0
1696287636497,-1.0078125,-0.0146484375,-0.076171875,0.25,0.25,-0.0625,0.0,0.0,0.0
1696287636499,-1.0,-0.01171875,-0.083984375,-0.59375,0.375,0.0,0.0,0.0,0.0
1696287636521,-1.0097656,-0.015625,-0.07421875,0.0,0.5,0.125,0.0,0.0,0.0
1696287636555,-1.0019531,-0.020507812,-0.059570312,0.875,0.4375,0.1875,0.0,0.0,0.0
1696287636581,-1.0175781,-0.0234375,-0.076171875,-0.40625,0.4375,0.0625,0.0,0.0,0.0
1696287636647,-1.0039062,-0.001953125,-0.07519531,0.0,0.25,0.0,0.0,0.0,0.0
1696287636672,-0.99121094,-0.01171875,-0.07714844,0.5,0.1875,0.25,0.0,0.0,0.0
1696287636701,-0.99902344,-0.0126953125,-0.06738281,-0.25,0.5625,0.125,0.0,0.0,0.0
1696287636765,-1.0068359,-0.0078125,-0.068359375,0.1875,0.125,0.1875,0.0,0.0,0.0
1696287636791,-1.0029297,-0.013671875,-0.08105469,0.0,0.3125,0.0625,0.0,0.0,0.0
1696287636822,-1.0126953,-0.0078125,-0.0703125,-0.25,0.125,0.125,-80.25,-20.6875,-201.0625
1696287636881,-1.0097656,-0.016601562,-0.087890625,0.9375,0.375,0.25,0.0,0.0,0.0
1696287636911,-1.0019531,-0.015625,-0.07324219,0.1875,0.375,0.0625,0.0,0.0,0.0
1696287636941,-1.0126953,-0.009765625,-0.08886719,0.0,0.4375,-0.125,0.0,0.0,0.0
1696287637066,-1.0068359,-0.013671875,-0.06347656,0.5625,-0.1875,0.25,0.0,0.0,0.0
1696287637069,-1.0039062,-0.017578125,-0.0703125,0.25,0.625,0.125,0.0,0.0,0.0
1696287637075,-1.0087891,-0.0048828125,-0.083984375,0.6875,0.0625,0.1875,0.0,0.0,0.0
1696287637123,-1.0009766,-0.016601562,-0.078125,0.5,0.3125,0.0625,0.0,0.0,0.0
1696287637155,-1.0019531,-0.013671875,-0.078125,-1.21875,0.5625,-0.0625,0.0,0.0,0.0
1696287637183,-0.9980469,-0.005859375,-0.076171875,0.5,0.125,0.0625,0.0,0.0,0.0
1696287637245,-1.0097656,-0.0048828125,-0.06347656,-0.78125,0.875,-0.1875,0.0,0.0,0.0
1696287637272,-1.0107422,-0.021484375,-0.09472656,0.125,0.3125,0.0,0.0,0.0,0.0
1696287637303,-1.0068359,-0.0068359375,-0.064453125,-0.65625,0.375,-0.1875,0.0,0.0,0.0
1696287637366,-1.0009766,-0.018554688,-0.078125,-0.53125,0.25,0.0,-79.0625,-20.5,-200.875
1696287637395,-1.0019531,-0.0107421875,-0.07910156,0.0625,0.5,0.0,0.0,0.0,0.0
1696287637421,-1.0039062,-0.022460938,-0.08984375,-0.46875,0.5625,-0.25,0.0,0.0,0.0
1696287637487,-1.0009766,-0.015625,-0.08203125,-0.46875,0.125,-0.1875,0.0,0.0,0.0
1696287637523,-1.0117188,-0.0234375,-0.06542969,0.0,0.25,-0.125,0.0,0.0,0.0
1696287637542,-1.0029297,-0.017578125,-0.078125,-0.125,0.1875,0.0,0.0,0.0,0.0
1696287637607,-1.0097656,-0.0146484375,-0.06933594,0.125,0.25,0.0,0.0,0.0,0.0
1696287637631,-1.0039062,-0.020507812,-0.091796875,0.9375,-0.1875,0.0,0.0,0.0,0.0
1696287637661,-1.0087891,-0.013671875,-0.07910156,0.0,0.5,0.0625,0.0,0.0,0.0
1696287637728,-1.0078125,-0.0078125,-0.06640625,0.25,0.0625,0.1875,0.0,0.0,0.0
1696287637753,-1.0048828,-0.0087890625,-0.080078125,0.6875,0.375,0.125,0.0,0.0,0.0
1696287637783,-0.9951172,-0.0126953125,-0.07421875,0.125,0.625,0.3125,0.0,0.0,0.0
1696287637845,-1.0039062,-0.01953125,-0.072265625,0.8125,0.0625,0.125,-79.0625,-20.5,-201.9375
1696287637874,-1.0039062,-0.0146484375,-0.08300781,0.3125,0.1875,0.0625,0.0,0.0,0.0
1696287637900,-1.0087891,-0.017578125,-0.07324219,0.375,0.25,0.125,0.0,0.0,0.0
1696287637966,-1.0068359,-0.00390625,-0.060546875,0.125,0.3125,-0.0625,0.0,0.0,0.0
1696287637991,-1.0,-0.0087890625,-0.08203125,0.0,0.25,0.0,0.0,0.0,0.0
1696287638025,-1.0097656,-0.020507812,-0.078125,0.125,0.3125,0.0,0.0,0.0,0.0
1696287638084,-1.0039062,9.765625E-4,-0.07421875,0.0,0.3125,0.0625,0.0,0.0,0.0
1696287638114,-1.0048828,-0.01953125,-0.080078125,-0.0625,0.4375,-0.125,0.0,0.0,0.0
1696287638142,-1.0039062,-0.0087890625,-0.064453125,0.5,0.25,-0.0625,0.0,0.0,0.0
1696287638203,-1.0097656,-0.0146484375,-0.06542969,0.375,0.1875,0.125,0.0,0.0,0.0
1696287638232,-1.0009766,-0.0087890625,-0.080078125,-0.40625,0.3125,-0.1875,0.0,0.0,0.0
1696287638262,-1.0,-0.022460938,-0.076171875,0.0625,0.375,0.1875,0.0,0.0,0.0
1696287638385,-1.0058594,-0.0126953125,-0.0703125,0.0,0.5625,-0.1875,0.0,0.0,0.0
1696287638388,-1.0058594,-0.01171875,-0.06933594,-0.53125,0.25,-0.125,-79.5,-20.9375,-201.0625
1696287638390,-1.0019531,-0.016601562,-0.07421875,0.4375,0.25,-0.1875,0.0,0.0,0.0
1696287638476,-1.0058594,-0.0107421875,-0.076171875,0.125,0.25,0.125,0.0,0.0,0.0
1696287638478,-1.0029297,-0.0107421875,-0.06542969,-0.125,0.25,-0.0625,0.0,0.0,0.0
1696287638500,-1.0048828,-0.0126953125,-0.06933594,0.1875,-0.0625,0.0625,0.0,0.0,0.0
1696287638569,-1.0,-0.017578125,-0.06933594,-0.125,0.25,-0.0625,0.0,0.0,0.0
1696287638594,-0.99121094,-0.0107421875,-0.0625,0.3125,0.0,0.0625,0.0,0.0,0.0
1696287638623,-1.0126953,-0.016601562,-0.072265625,0.0,0.5,-0.0625,0.0,0.0,0.0
1696287638683,-1.0048828,-0.0087890625,-0.06738281,0.6875,0.125,0.125,0.0,0.0,0.0
1696287638712,-0.9951172,-0.022460938,-0.07910156,0.8125,0.0,0.25,0.0,0.0,0.0
1696287638742,-1.0029297,-0.0146484375,-0.0625,-1.28125,0.5,-0.25,0.0,0.0,0.0
1696287638806,-1.0019531,-0.026367188,-0.07910156,1.15625,0.0,0.375,0.0,0.0,0.0
1696287638830,-1.0058594,-0.02734375,-0.080078125,-0.84375,0.75,-0.125,-79.5,-19.3125,-202.375
1696287638863,-1.0078125,-0.01171875,-0.07910156,0.0,0.125,0.25,0.0,0.0,0.0
1696287638928,-1.0048828,-0.0126953125,-0.0703125,0.0625,0.1875,-0.0625,0.0,0.0,0.0
1696287638950,-1.0097656,-0.0146484375,-0.08105469,-0.65625,0.6875,0.1875,0.0,0.0,0.0
1696287638984,-1.0058594,-0.01171875,-0.060546875,0.96875,0.25,0.25,0.0,0.0,0.0
1696287639045,-1.0117188,-0.009765625,-0.07324219,-1.15625,0.75,0.0,0.0,0.0,0.0
1696287639071,-1.0068359,-0.018554688,-0.08496094,0.75,0.125,0.125,0.0,0.0,0.0
1696287639106,-1.0,-0.0107421875,-0.0703125,-0.40625,0.4375,-0.125,0.0,0.0,0.0
1696287639165,-1.0039062,-0.0087890625,-0.080078125,-0.34375,0.375,0.1875,0.0,0.0,0.0
1696287639193,-1.0029297,-0.018554688,-0.07324219,0.875,0.5,0.1875,0.0,0.0,0.0
1696287639224,-1.0029297,-0.01171875,-0.06542969,0.0,0.25,0.1875,0.0,0.0,0.0
1696287639318,-1.015625,-0.013671875,-0.07714844,-0.65625,0.625,-0.25,0.0,0.0,0.0
1696287639324,-1.0019531,-0.01953125,-0.07910156,0.875,0.0,0.3125,0.0,0.0,0.0
1696287639342,-0.99902344,-0.013671875,-0.0703125,-0.40625,0.625,0.0,-79.0625,-20.8125,-201.625
1696287639435,-1.0029297,-0.009765625,-0.068359375,-0.25,0.375,0.0625,0.0,0.0,0.0
1696287639439,-1.0068359,-0.021484375,-0.07714844,0.25,0.3125,0.0,0.0,0.0,0.0
1696287639463,-1.0078125,-0.0087890625,-0.08496094,-1.15625,0.5,-0.0625,0.0,0.0,0.0
1696287639523,-1.0029297,-0.018554688,-0.07910156,0.6875,0.3125,0.0625,0.0,0.0,0.0
1696287639555,-1.0117188,-0.00390625,-0.0703125,-0.40625,0.3125,0.0,0.0,0.0,0.0
1696287639579,-1.0136719,-0.017578125,-0.07519531,0.3125,0.5625,0.125,0.0,0.0,0.0
1696287639701,-1.0048828,-0.0107421875,-0.07421875,0.25,-0.0625,0.0,0.0,0.0,0.0
1696287639703,-1.0136719,-0.016601562,-0.072265625,-0.0625,0.0625,0.25,0.0,0.0,0.0
1696287639704,-1.0019531,-0.0107421875,-0.07519531,0.5625,0.1875,0.1875,0.0,0.0,0.0
1696287639767,-1.0039062,-0.022460938,-0.06738281,0.4375,0.25,0.375,0.0,0.0,0.0
1696287639792,-1.0146484,-0.0087890625,-0.08496094,-0.46875,0.1875,-0.0625,0.0,0.0,0.0
1696287639823,-1.0195312,-0.001953125,-0.07324219,0.3125,0.0,0.0625,-79.0625,-19.4375,-202.25
1696287639884,-1.0039062,-0.01953125,-0.072265625,-0.46875,0.3125,0.0,0.0,0.0,0.0
1696287639914,-1.0048828,-0.005859375,-0.068359375,-0.1875,0.1875,0.1875,0.0,0.0,0.0
1696287639944,-1.0097656,-0.017578125,-0.08203125,-0.3125,0.25,-0.1875,0.0,0.0,0.0
1696287640009,-1.0087891,-0.0126953125,-0.08886719,-0.46875,0.125,0.1875,0.0,0.0,0.0
1696287640031,-1.0107422,-0.020507812,-0.08203125,0.1875,0.125,0.0625,0.0,0.0,0.0
1696287640063,-1.0029297,-0.017578125,-0.078125,-0.40625,0.25,0.0,0.0,0.0,0.0
1696287640125,-1.0087891,-0.0146484375,-0.068359375,0.25,-0.125,0.125,0.0,0.0,0.0
1696287640151,-1.0126953,-0.018554688,-0.07324219,-0.25,0.125,-0.125,0.0,0.0,0.0
1696287640181,-1.0078125,-0.0078125,-0.08300781,-0.46875,-0.125,0.125,0.0,0.0,0.0
1696287640242,-1.0039062,-0.0068359375,-0.07324219,0.75,0.1875,0.125,0.0,0.0,0.0
1696287640272,-1.0058594,-0.016601562,-0.060546875,-0.0625,0.0625,0.1875,0.0,0.0,0.0
1696287640301,-1.0078125,-0.013671875,-0.06933594,-0.40625,0.1875,-0.125,0.0,0.0,0.0
1696287640365,-1.0048828,-0.016601562,-0.07714844,0.1875,0.0,0.125,-79.5,-18.125,-202.125
1696287640392,-1.0068359,-0.01171875,-0.06542969,0.125,0.3125,-0.0625,0.0,0.0,0.0
1696287640422,-1.0,-0.0107421875,-0.07324219,-0.59375,0.25,0.0,0.0,0.0,0.0
1696287640486,-1.0,-0.017578125,-0.072265625,0.1875,0.125,0.0,0.0,0.0,0.0
1696287640512,-1.0126953,-0.0107421875,-0.08984375,-0.71875,0.1875,-0.1875,0.0,0.0,0.0
1696287640541,-1.0019531,-0.018554688,-0.08496094,0.0625,-0.0625,0.3125,0.0,0.0,0.0
1696287640608,-1.0068359,-0.017578125,-0.07910156,-0.1875,0.4375,0.0,0.0,0.0,0.0
1696287640663,-1.0048828,-0.015625,-0.06738281,0.0,0.0625,-0.125,0.0,0.0,0.0
1696287640666,-1.0087891,-0.021484375,-0.07519531,-0.1875,0.0625,-0.125,0.0,0.0,0.0
1696287640722,-0.9970703,-0.0107421875,-0.08203125,-0.25,-0.0625,0.0,0.0,0.0,0.0
1696287640752,-1.0078125,-0.0234375,-0.087890625,0.625,0.25,0.3125,0.0,0.0,0.0
1696287640785,-1.0019531,-0.018554688,-0.06738281,0.3125,0.3125,0.125,0.0,0.0,0.0
1696287640843,-1.0,-0.0126953125,-0.07519531,-0.0625,0.0,-0.125,-78.625,-19.4375,-201.9375
1696287640877,-1.0048828,-0.017578125,-0.08496094,0.3125,0.1875,0.0625,0.0,0.0,0.0
1696287640903,-0.99902344,-0.018554688,-0.080078125,0.25,0.3125,0.125,0.0,0.0,0.0
1696287640965,-1.0048828,-0.0107421875,-0.072265625,0.25,0.375,0.0,0.0,0.0,0.0
1696287640994,-1.0068359,-0.017578125,-0.07519531,-0.125,0.0,0.0625,0.0,0.0,0.0
1696287641022,-1.0058594,-0.015625,-0.072265625,0.375,0.375,-0.0625,0.0,0.0,0.0
1696287641089,-1.0058594,-0.020507812,-0.09277344,-0.25,-0.0625,0.125,0.0,0.0,0.0
1696287641111,-1.0009766,-0.017578125,-0.083984375,-0.40625,0.3125,-0.25,0.0,0.0,0.0
1696287641145,-1.0039062,-0.017578125,-0.08300781,0.0,0.0,0.0625,0.0,0.0,0.0
1696287641236,-1.0058594,-0.013671875,-0.061523438,-0.125,0.4375,-0.125,0.0,0.0,0.0
1696287641239,-0.9970703,-0.013671875,-0.07910156,0.0,-0.125,0.1875,0.0,0.0,0.0
1696287641260,-1.0068359,-0.013671875,-0.064453125,0.0,0.1875,0.125,0.0,0.0,0.0
1696287641326,-1.0058594,-0.013671875,-0.059570312,0.125,0.1875,0.125,0.0,0.0,0.0
1696287641351,-1.0019531,-0.021484375,-0.07421875,1.28125,0.125,0.3125,-79.625,-19.0,-200.875
1696287641385,-1.0117188,-0.018554688,-0.07324219,-1.09375,0.25,-0.0625,0.0,0.0,0.0
1696287641412,-0.9970703,-0.0087890625,-0.08203125,0.8125,0.125,0.1875,0.0,0.0,0.0
1696287641471,-1.0048828,-0.009765625,-0.068359375,-0.84375,0.1875,-0.125,0.0,0.0,0.0
1696287641500,-0.9980469,-0.0078125,-0.07910156,-0.0625,0.125,0.0625,0.0,0.0,0.0
1696287641533,-1.0058594,-0.0126953125,-0.059570312,-0.25,0.1875,-0.125,0.0,0.0,0.0
1696287641594,-1.0097656,-0.0146484375,-0.057617188,-0.53125,0.125,0.0,0.0,0.0,0.0
1696287641621,-1.0029297,-0.0087890625,-0.091796875,-0.1875,0.3125,-0.1875,0.0,0.0,0.0
1696287641653,-1.0029297,-0.01171875,-0.08105469,-0.40625,0.0625,0.0625,0.0,0.0,0.0
1696287641772,-1.0117188,-0.0146484375,-0.078125,0.3125,0.4375,-0.125,0.0,0.0,0.0
1696287641776,-1.0058594,-0.0146484375,-0.0703125,0.125,-0.21875,0.1875,0.0,0.0,0.0
1696287641779,-1.0068359,-0.01171875,-0.07714844,-0.125,0.25,-0.0625,0.0,0.0,0.0
1696287641831,-1.0019531,-0.017578125,-0.07324219,0.5625,-0.0625,0.125,-80.375,-20.0625,-201.9375
1696287641863,-1.0048828,-0.0078125,-0.06542969,0.875,0.1875,0.25,0.0,0.0,0.0
1696287641892,-1.0009766,-0.005859375,-0.08203125,-0.84375,0.1875,0.0625,0.0,0.0,0.0
1696287641955,-0.99609375,-0.020507812,-0.08496094,1.15625,0.0625,0.25,0.0,0.0,0.0
1696287641984,-1.0058594,-0.017578125,-0.0703125,-0.71875,0.1875,0.0625,0.0,0.0,0.0
1696287642013,-0.9980469,-0.01953125,-0.07324219,0.375,0.1875,0.0625,0.0,0.0,0.0
1696287642135,-1.0087891,-0.022460938,-0.059570312,-0.125,0.1875,-0.0625,0.0,0.0,0.0
1696287642137,-1.0087891,-0.0048828125,-0.08203125,-0.1875,0.125,0.1875,0.0,0.0,0.0
1696287642139,-0.9970703,-0.013671875,-0.07519531,0.0,0.0625,0.0625,0.0,0.0,0.0
1696287642195,-1.0097656,-0.0107421875,-0.06640625,-0.84375,0.0625,0.125,0.0,0.0,0.0
1696287642222,-1.0029297,-0.01171875,-0.07421875,0.1875,0.0,0.0625,0.0,0.0,0.0
1696287642255,-1.0117188,-0.017578125,-0.0625,-0.125,0.375,0.3125,0.0,0.0,0.0
1696287642316,-1.0039062,-0.01953125,-0.07324219,0.375,0.0625,0.1875,0.0,0.0,0.0
1696287642342,-1.015625,-0.029296875,-0.053710938,0.25,0.1875,0.25,-79.625,-20.5,-201.9375
1696287642372,-1.0078125,-0.021484375,-0.060546875,0.5,0.375,0.125,0.0,0.0,0.0
1696287642435,-1.0,-0.0126953125,-0.08496094,-0.0625,-0.125,0.3125,0.0,0.0,0.0
1696287642465,-1.0019531,-0.016601562,-0.078125,-0.125,-0.125,0.0625,0.0,0.0,0.0
1696287642493,-1.0009766,-0.0078125,-0.08984375,0.375,0.625,0.125,0.0,0.0,0.0
1696287642583,-1.0078125,-0.0107421875,-0.07421875,-0.3125,0.0625,0.125,0.0,0.0,0.0
1696287642586,-1.0,-0.0146484375,-0.072265625,-0.25,0.375,0.0,0.0,0.0,0.0
1696287642610,-1.0068359,-0.013671875,-0.07421875,-0.40625,0.0625,0.0,0.0,0.0,0.0
1696287642763,-1.0019531,-0.01171875,-0.06933594,-0.46875,0.0625,-0.25,0.0,0.0,0.0
1696287642765,-1.0087891,-0.013671875,-0.0625,-0.25,0.4375,0.0625,0.0,0.0,0.0
1696287642766,-1.0,-0.0078125,-0.068359375,0.0,0.0625,0.1875,0.0,0.0,0.0
1696287642798,-1.0087891,-0.018554688,-0.072265625,-0.71875,0.3125,-0.25,0.0,0.0,0.0
1696287642822,-1.0058594,-0.016601562,-0.08300781,0.0625,0.3125,0.125,-79.375,-19.4375,-201.625
1696287642851,-1.0097656,-0.015625,-0.087890625,-0.40625,0.1875,-0.0625,0.0,0.0,0.0
1696287642947,-1.0,-0.015625,-0.080078125,0.9375,0.3125,0.1875,0.0,0.0,0.0
1696287642951,-1.0058594,-0.009765625,-0.08984375,0.1875,0.125,0.125,0.0,0.0,0.0
1696287642971,-1.0078125,-0.009765625,-0.06933594,-0.0625,0.1875,0.0625,0.0,0.0,0.0
1696287643037,-0.99609375,-0.0146484375,-0.07714844,0.8125,0.125,0.125,0.0,0.0,0.0
1696287643063,-1.0126953,-0.01953125,-0.076171875,0.125,0.4375,0.25,0.0,0.0,0.0
1696287643091,-1.0019531,-0.0146484375,-0.078125,0.125,0.375,0.125,0.0,0.0,0.0
1696287643215,-1.0078125,-0.005859375,-0.07324219,0.3125,0.125,0.25,0.0,0.0,0.0
1696287643218,-1.0019531,-0.020507812,-0.08203125,0.0,0.3125,-0.125,0.0,0.0,0.0
1696287643219,-1.0,-0.0087890625,-0.07324219,-0.46875,0.1875,0.0,0.0,0.0,0.0
1696287643277,-0.9941406,-0.0078125,-0.07324219,0.25,0.0625,0.1875,0.0,0.0,0.0
1696287643302,-1.0068359,-0.0048828125,-0.08105469,-0.40625,0.3125,-0.1875,0.0,0.0,0.0
1696287643334,-1.0019531,-0.009765625,-0.06640625,0.375,-0.0625,0.125,-79.375,-19.75,-202.6875
1696287643397,-1.0078125,-0.01171875,-0.0703125,-0.65625,0.25,-0.1875,0.0,0.0,0.0
1696287643423,-1.0068359,-0.015625,-0.068359375,0.4375,-0.0625,0.125,0.0,0.0,0.0
1696287643453,-0.9980469,-0.00390625,-0.08105469,-0.125,0.1875,-0.0625,0.0,0.0,0.0
1696287643514,-1.0117188,-0.0146484375,-0.08203125,-0.40625,0.25,0.0625,0.0,0.0,0.0
1696287643542,-0.99609375,-0.01171875,-0.091796875,0.3125,0.1875,0.0,0.0,0.0,0.0
1696287643571,-1.0048828,-0.0126953125,-0.072265625,-0.34375,0.4375,-0.0625,0.0,0.0,0.0
1696287643666,-1.0058594,-0.0126953125,-0.08496094,-0.0625,-0.1875,0.0625,0.0,0.0,0.0
1696287643667,-1.0087891,-0.017578125,-0.08300781,-0.71875,0.4375,-0.125,0.0,0.0,0.0
1696287643691,-1.0068359,-0.0146484375,-0.07714844,0.0625,0.0,0.0625,0.0,0.0,0.0
1696287643757,-1.0078125,-0.016601562,-0.06542969,-0.40625,0.1875,-0.125,0.0,0.0,0.0
1696287643783,-1.0078125,-0.01953125,-0.07714844,-0.3125,0.1875,-0.0625,0.0,0.0,0.0
1696287643812,-1.0,-0.0048828125,-0.08691406,0.4375,-0.125,-0.0625,-79.5,-19.625,-201.5
1696287643875,-1.0068359,-0.01171875,-0.0703125,-0.0625,0.25,0.125,0.0,0.0,0.0
1696287643904,-0.9892578,-0.017578125,-0.0625,0.3125,-0.125,0.0625,0.0,0.0,0.0
1696287643933,-1.0029297,-0.0146484375,-0.07910156,-0.125,0.4375,-0.0625,0.0,0.0,0.0
1696287644056,-0.9980469,-0.005859375,-0.068359375,0.8125,-0.28125,0.1875,0.0,0.0,0.0
1696287644061,-1.0039062,-0.0087890625,-0.07421875,-0.125,0.375,0.125,0.0,0.0,0.0
1696287644064,-1.0068359,-0.017578125,-0.078125,-0.1875,-0.28125,-0.125,0.0,0.0,0.0
1696287644110,-1.0029297,-0.015625,-0.07519531,0.3125,0.4375,0.0625,0.0,0.0,0.0
1696287644142,-1.0039062,-0.017578125,-0.07324219,-0.65625,0.25,-0.0625,0.0,0.0,0.0
1696287644177,-1.0097656,-0.021484375,-0.07128906,-0.0625,0.125,-0.0625,0.0,0.0,0.0
1696287644233,-1.0029297,-0.016601562,-0.087890625,-0.40625,-0.0625,-0.0625,0.0,0.0,0.0
1696287644262,-1.0048828,-0.021484375,-0.080078125,0.5625,0.25,-0.125,0.0,0.0,0.0
1696287644291,-1.0,-0.025390625,-0.07128906,-0.46875,0.3125,-0.1875,0.0,0.0,0.0
1696287644355,-0.99609375,-0.013671875,-0.08203125,0.75,0.0625,0.125,-79.375,-20.0625,-201.1875
1696287644381,-0.9951172,-0.0087890625,-0.0703125,-0.46875,0.1875,-0.0625,0.0,0.0,0.0
1696287644412,-1.0068359,-0.0146484375,-0.06933594,0.625,-0.125,0.25,0.0,0.0,0.0
1696287644476,-1.0048828,-0.0107421875,-0.0703125,-0.0625,0.0625,-0.125,0.0,0.0,0.0
1696287644502,-1.0146484,-0.00390625,-0.0625,0.625,-0.1875,0.3125,0.0,0.0,0.0
1696287644532,-1.0126953,-0.021484375,-0.083984375,0.625,0.25,0.0625,0.0,0.0,0.0
1696287644593,-1.0117188,-0.009765625,-0.07324219,-0.125,-0.1875,0.3125,0.0,0.0,0.0
1696287644621,-1.0048828,-0.0146484375,-0.07128906,-0.40625,0.1875,-0.125,0.0,0.0,0.0
1696287644652,-1.0029297,-0.018554688,-0.080078125,-0.34375,0.1875,0.0625,0.0,0.0,0.0
1696287644713,-1.0048828,-0.01171875,-0.06542969,0.125,0.3125,0.0625,0.0,0.0,0.0
1696287644744,-1.0058594,-0.01953125,-0.08300781,-0.65625,0.25,-0.25,0.0,0.0,0.0
1696287644772,-1.0019531,-0.017578125,-0.07910156,-0.0625,0.1875,-0.0625,0.0,0.0,0.0
1696287644835,-1.0107422,-0.015625,-0.080078125,-0.84375,0.375,-0.25,-80.375,-19.0,-203.3125
1696287644863,-1.0019531,-0.0146484375,-0.07324219,0.375,0.0,0.0,0.0,0.0,0.0
1696287644893,-1.0058594,-0.01171875,-0.07519531,-0.34375,0.375,-0.1875,0.0,0.0,0.0
1696287644986,-1.0048828,-0.0146484375,-0.07519531,0.0,0.0,0.125,0.0,0.0,0.0
1696287644990,-1.0029297,-0.025390625,-0.072265625,0.4375,0.125,0.0625,0.0,0.0,0.0
1696287645011,-1.0029297,-0.0126953125,-0.087890625,0.0625,-0.0625,0.1875,0.0,0.0,0.0
1696287645108,-0.9951172,-0.0078125,-0.07421875,0.5625,0.1875,-0.0625,0.0,0.0,0.0
1696287645109,-1.0048828,-0.015625,-0.08203125,0.9375,-0.1875,0.4375,0.0,0.0,0.0
1696287645138,-0.99902344,-0.018554688,-0.064453125,-0.78125,0.1875,-0.125,0.0,0.0,0.0
1696287645225,-0.9970703,-0.0107421875,-0.083984375,0.6875,0.1875,0.1875,0.0,0.0,0.0
1696287645226,-1.0009766,-0.0126953125,-0.0703125,-0.125,0.1875,0.0,0.0,0.0,0.0
1696287645252,-1.0107422,-0.01171875,-0.07714844,-1.40625,0.5,-0.25,0.0,0.0,0.0
1696287645317,-0.99902344,-0.015625,-0.087890625,0.25,-0.46875,0.25,0.0,0.0,0.0
1696287645341,-1.0068359,-0.016601562,-0.06738281,-1.59375,1.0625,-0.25,-78.875,-19.3125,-202.875
1696287645376,-1.0039062,-0.030273438,-0.087890625,0.875,0.25,0.25,0.0,0.0,0.0
1696287645431,-0.9980469,-0.016601562,-0.072265625,-0.46875,0.375,-0.25,0.0,0.0,0.0
1696287645462,-1.0107422,-0.0078125,-0.078125,-0.65625,0.1875,0.0625,0.0,0.0,0.0
1696287645493,-1.0039062,-0.0126953125,-0.059570312,1.15625,0.0,0.1875,0.0,0.0,0.0
1696287645557,-1.0,-0.026367188,-0.0859375,-0.53125,0.0625,0.1875,0.0,0.0,0.0
1696287645583,-1.0048828,-0.0107421875,-0.06542969,0.6875,0.1875,0.1875,0.0,0.0,0.0
1696287645613,-0.99902344,-0.009765625,-0.072265625,0.75,0.0625,0.25,0.0,0.0,0.0
1696287645676,-1.0126953,-0.015625,-0.072265625,0.25,0.25,0.25,0.0,0.0,0.0
1696287645702,-1.0029297,-0.01171875,-0.06542969,-0.46875,0.1875,-0.0625,0.0,0.0,0.0
1696287645732,-1.0058594,-0.01171875,-0.06347656,0.875,0.0625,0.1875,0.0,0.0,0.0
1696287645797,-1.0078125,-9.765625E-4,-0.068359375,-0.90625,0.8125,-0.25,0.0,0.0,0.0
1696287645826,-1.0019531,-0.01171875,-0.072265625,0.0625,0.0625,0.1875,-80.25,-20.375,-201.8125
1696287645852,-1.0048828,-0.0107421875,-0.06347656,-0.78125,0.5,-0.25,0.0,0.0,0.0
1696287646066,-1.0126953,-0.013671875,-0.072265625,-0.71875,0.1875,0.0625,0.0,0.0,0.0
1696287646070,-1.0039062,-0.020507812,-0.08105469,0.0,0.375,-0.1875,0.0,0.0,0.0
1696287646072,-1.015625,-0.0126953125,-0.07324219,-0.90625,0.25,0.0,0.0,0.0,0.0
1696287646074,-1.0097656,-0.017578125,-0.09082031,0.1875,0.125,0.0625,0.0,0.0,0.0
1696287646075,-1.0068359,-0.0087890625,-0.078125,-0.78125,0.25,0.0625,0.0,0.0,0.0
1696287646091,-0.9980469,-0.0107421875,-0.07519531,0.0625,0.1875,0.1875,0.0,0.0,0.0
1696287646158,-1.0146484,-0.0146484375,-0.068359375,0.25,0.3125,0.125,0.0,0.0,0.0
1696287646179,-0.9970703,-0.0234375,-0.072265625,-0.0625,-0.0625,0.125,0.0,0.0,0.0
1696287646211,-1.0039062,-0.0107421875,-0.078125,0.0625,0.125,0.0625,0.0,0.0,0.0
1696287646276,-0.9951172,-0.022460938,-0.09375,0.96875,-0.1875,0.25,0.0,0.0,0.0
1696287646302,-1.0117188,-0.0126953125,-0.08105469,0.0,0.5,-0.0625,0.0,0.0,0.0
1696287646332,-1.0107422,-0.016601562,-0.083984375,0.3125,-0.1875,0.25,-79.625,-20.5,-200.875
1696287646398,-1.0048828,-0.01953125,-0.064453125,0.0,0.5,-0.0625,0.0,0.0,0.0
1696287646424,-1.0039062,-0.018554688,-0.080078125,-0.25,0.125,0.0625,0.0,0.0,0.0
1696287646452,-1.0136719,-0.0126953125,-0.06933594,0.0625,0.1875,0.0,0.0,0.0,0.0
1696287646667,-1.0019531,-0.017578125,-0.06347656,-0.3125,0.125,0.0625,0.0,0.0,0.0
1696287646670,-0.9970703,-0.016601562,-0.068359375,0.0625,0.1875,0.0625,0.0,0.0,0.0
1696287646671,-1.0087891,-0.0107421875,-0.07324219,-0.3125,0.0625,-0.0625,0.0,0.0,0.0
1696287646672,-1.0029297,-0.0087890625,-0.07910156,0.0625,0.125,0.3125,0.0,0.0,0.0
1696287646674,-1.0097656,-0.0126953125,-0.06542969,0.0625,0.3125,0.0625,0.0,0.0,0.0
1696287646706,-0.99609375,-0.0126953125,-0.08203125,-0.0625,-0.125,0.0,0.0,0.0,0.0
1696287646750,-1.0126953,-0.017578125,-0.07421875,-0.125,0.375,0.0,0.0,0.0,0.0
1696287646781,-0.99902344,-0.01171875,-0.07714844,0.375,-0.1875,0.125,0.0,0.0,0.0
1696287646811,-1.0058594,-0.017578125,-0.07324219,-0.3125,0.25,-0.125,-80.25,-21.4375,-201.0625
1696287646875,-1.0117188,-0.015625,-0.07519531,-0.1875,0.1875,0.0625,0.0,0.0,0.0
1696287646902,-1.0097656,-0.017578125,-0.07324219,0.3125,0.0625,-0.125,0.0,0.0,0.0
1696287646932,-1.0126953,-0.016601562,-0.078125,-1.15625,0.125,-0.125,0.0,0.0,0.0
1696287647059,-1.0048828,-0.0146484375,-0.076171875,0.4375,-0.1875,0.0,0.0,0.0,0.0
1696287647061,-1.0058594,-0.026367188,-0.07910156,-0.53125,0.125,0.0,0.0,0.0,0.0
1696287647064,-0.99902344,-0.021484375,-0.07714844,0.0625,0.125,0.0625,0.0,0.0,0.0
1696287647114,-1.0068359,-0.016601562,-0.07324219,-0.1875,0.125,-0.125,0.0,0.0,0.0
1696287647145,-0.9941406,-0.01953125,-0.0703125,0.25,-0.125,0.1875,0.0,0.0,0.0
1696287647173,-0.9980469,-0.0087890625,-0.068359375,0.0625,0.125,0.0625,0.0,0.0,0.0
1696287647232,-1.0058594,-0.0087890625,-0.06933594,0.25,0.125,0.125,0.0,0.0,0.0
1696287647261,-1.0126953,-0.0126953125,-0.08105469,0.4375,0.3125,0.0,0.0,0.0,0.0
1696287647293,-1.0146484,-0.016601562,-0.0546875,-0.40625,0.0,0.0,0.0,0.0,0.0
1696287647357,-1.0029297,-0.021484375,-0.08300781,0.0,0.25,-0.0625,-80.5625,-20.6875,-201.8125
1696287647383,-1.0068359,-0.0107421875,-0.0703125,0.0,0.25,0.0625,0.0,0.0,0.0
1696287647415,-1.0039062,-0.0234375,-0.07324219,0.1875,0.25,0.0,0.0,0.0,0.0
1696287647503,-0.9941406,-0.009765625,-0.06933594,-0.3125,0.25,0.0625,0.0,0.0,0.0
1696287647508,-1.0136719,-0.0126953125,-0.09375,0.3125,0.125,0.0625,0.0,0.0,0.0
1696287647531,-1.0078125,-0.021484375,-0.06933594,-0.3125,0.4375,-0.1875,0.0,0.0,0.0
1696287647597,-1.0078125,-0.0146484375,-0.07910156,0.4375,-0.21875,0.25,0.0,0.0,0.0
1696287647621,-1.0107422,-0.021484375,-0.0703125,-0.3125,0.0,-0.125,0.0,0.0,0.0
1696287647653,-1.0029297,-0.018554688,-0.07128906,0.3125,0.0,0.125,0.0,0.0,0.0
1696287647715,-1.0019531,-0.013671875,-0.08691406,0.5,-0.125,0.0,0.0,0.0,0.0
1696287647743,-1.0117188,-0.0087890625,-0.068359375,-0.1875,0.3125,0.0625,0.0,0.0,0.0
1696287647773,-1.0078125,-0.013671875,-0.057617188,1.15625,-0.125,0.3125,0.0,0.0,0.0
1696287647839,-1.0126953,-0.015625,-0.06738281,-0.78125,0.4375,-0.125,-78.875,-21.4375,-201.0625
1696287647862,-1.0039062,-0.016601562,-0.080078125,0.1875,-0.0625,0.25,0.0,0.0,0.0
1696287647893,-1.0078125,-0.01171875,-0.07421875,-0.1875,0.375,-0.1875,0.0,0.0,0.0
1696287647981,-1.0126953,-0.0126953125,-0.0625,-0.3125,0.0625,0.1875,0.0,0.0,0.0
1696287647982,-1.0039062,-0.0146484375,-0.06542969,-0.40625,0.25,-0.125,0.0,0.0,0.0
1696287648015,-1.0087891,-0.016601562,-0.072265625,-0.40625,0.1875,0.0,0.0,0.0,0.0
1696287648069,-1.0029297,-0.0107421875,-0.06347656,0.375,-0.28125,0.125,0.0,0.0,0.0
1696287648101,-1.0107422,-0.01171875,-0.060546875,-0.46875,0.4375,0.0,0.0,0.0,0.0
1696287648133,-0.9980469,-0.013671875,-0.08691406,0.125,0.0625,0.125,0.0,0.0,0.0
1696287648221,-1.0097656,-0.01953125,-0.07421875,-0.25,0.25,0.0,0.0,0.0,0.0
1696287648223,-1.0029297,-0.020507812,-0.07421875,-0.1875,0.0,0.125,0.0,0.0,0.0
1696287648250,-1.0,-0.013671875,-0.056640625,0.125,0.0625,0.125,0.0,0.0,0.0
1696287648342,-1.0019531,-0.0078125,-0.06738281,-0.0625,0.1875,0.125,0.0,0.0,0.0
1696287648343,-1.0068359,-0.009765625,-0.0703125,0.625,0.25,0.3125,-79.0625,-20.5,-202.6875
1696287648373,-1.0087891,-0.0087890625,-0.07324219,-0.34375,0.3125,-0.0625,0.0,0.0,0.0
1696287648431,-1.0078125,-0.009765625,-0.080078125,0.5,0.5625,0.1875,0.0,0.0,0.0
1696287648462,-1.0039062,-9.765625E-4,-0.06738281,-0.0625,0.3125,0.0625,0.0,0.0,0.0
1696287648491,-1.0117188,-0.0126953125,-0.09277344,-0.0625,0.375,0.1875,0.0,0.0,0.0
1696287648553,-1.0146484,-0.016601562,-0.053710938,0.4375,0.1875,0.125,0.0,0.0,0.0
1696287648581,-1.0107422,-0.0087890625,-0.07910156,-0.34375,0.0625,0.125,0.0,0.0,0.0
1696287648614,-1.0019531,-0.0126953125,-0.0703125,0.5,0.125,0.1875,0.0,0.0,0.0
1696287648671,-1.0078125,-0.0087890625,-0.08105469,-0.25,0.0625,0.25,0.0,0.0,0.0
1696287648701,-1.0068359,-0.0146484375,-0.06738281,0.5625,0.5,0.0625,0.0,0.0,0.0
1696287648736,-1.0097656,-0.0029296875,-0.083984375,-0.3125,-0.125,0.125,0.0,0.0,0.0
1696287648800,-1.0126953,-0.018554688,-0.07714844,0.5,0.5,0.25,0.0,0.0,0.0
1696287648822,-1.0029297,-0.0087890625,-0.06347656,0.0625,0.5,0.0625,-79.375,-19.4375,-201.1875
1696287648851,-1.0048828,-0.013671875,-0.078125,0.625,0.25,0.375,0.0,0.0,0.0
1696287649033,-1.0048828,-0.01953125,-0.052734375,-1.34375,0.5625,-0.3125,0.0,0.0,0.0
1696287649035,-1.0048828,-0.016601562,-0.07714844,0.5,0.0,0.3125,0.0,0.0,0.0
1696287649037,-1.0029297,-0.0087890625,-0.07714844,-0.59375,1.0,-0.125,0.0,0.0,0.0
1696287649039,-0.9951172,-0.0107421875,-0.06640625,-0.25,0.0625,0.125,0.0,0.0,0.0
1696287649062,-1.0146484,-0.020507812,-0.0625,0.1875,0.5625,0.0,0.0,0.0,0.0
1696287649095,-1.0048828,-0.00390625,-0.07714844,-0.40625,0.0625,-0.0625,0.0,0.0,0.0
1696287649154,-1.0097656,-0.0126953125,-0.07421875,0.375,0.375,0.1875,0.0,0.0,0.0
1696287649181,-1.0029297,-0.015625,-0.0625,0.0,0.375,0.125,0.0,0.0,0.0
1696287649212,-1.0146484,-0.0234375,-0.083984375,0.0,0.4375,-0.125,0.0,0.0,0.0
1696287649277,-0.99316406,-0.016601562,-0.0703125,0.3125,0.6875,-0.1875,0.0,0.0,0.0
1696287649305,-1.0146484,-0.013671875,-0.08886719,-0.0625,0.375,0.3125,0.0,0.0,0.0
1696287649332,-1.0087891,-0.0068359375,-0.05859375,0.6875,0.9375,-0.125,-78.4375,-20.375,-201.5
1696287649394,-1.0039062,-0.0146484375,-0.083984375,-0.1875,0.0625,0.0,0.0,0.0,0.0
1696287649425,-1.0126953,-0.0078125,-0.0703125,-0.125,0.5625,-0.25,0.0,0.0,0.0
1696287649454,-1.0,-0.00390625,-0.08496094,0.5,0.125,0.1875,0.0,0.0,0.0
1696287649516,-1.0097656,-0.0146484375,-0.0703125,-0.34375,0.4375,-0.125,0.0,0.0,0.0
1696287649542,-1.0107422,-0.00390625,-0.06933594,-0.59375,0.1875,-0.1875,0.0,0.0,0.0
1696287649573,-1.0097656,-0.0087890625,-0.068359375,0.0625,0.375,-0.03125,0.0,0.0,0.0
1696287649632,-0.9980469,-0.013671875,-0.064453125,-0.59375,0.4375,-0.4375,0.0,0.0,0.0
1696287649660,-1.0175781,-0.015625,-0.080078125,-0.90625,0.1875,-0.1875,0.0,0.0,0.0
1696287649695,-1.0,-0.022460938,-0.07519531,1.0,-0.3125,0.03125,0.0,0.0,0.0
1696287649786,-1.0068359,-0.0126953125,-0.06738281,-0.28125,-0.5,0.03125,0.0,0.0,0.0
1696287649791,-1.0019531,-0.018554688,-0.06738281,0.125,-0.59375,0.03125,0.0,0.0,0.0
1696287649812,-1.0048828,-0.0107421875,-0.06933594,0.0,-0.0625,-0.09375,-80.25,-20.375,-201.8125
1696287649873,-1.0058594,-0.022460938,-0.07910156,1.25,-0.375,0.40625,0.0,0.0,0.0
1696287649902,-1.0087891,-0.0029296875,-0.06640625,0.1875,-0.1875,-0.125,0.0,0.0,0.0
1696287649934,-1.0087891,-0.0107421875,-0.07128906,-0.15625,-0.65625,-0.03125,0.0,0.0,0.0
1696287649963,-1.0078125,-0.015625,-0.080078125,0.25,-0.3125,0.09375,0.0,0.0,0.0
1696287650026,-1.0087891,-0.020507812,-0.07519531,-0.28125,-0.0625,-0.03125,0.0,0.0,0.0
1696287650052,-1.0029297,-0.017578125,-0.080078125,0.0625,-0.1875,-0.09375,0.0,0.0,0.0
1696287650081,-1.0078125,-0.0146484375,-0.07421875,-0.53125,-0.1875,-0.09375,0.0,0.0,0.0
1696287650144,-1.0009766,-0.022460938,-0.06347656,-0.09375,-0.25,-0.09375,0.0,0.0,0.0
1696287650173,-1.0029297,-0.0126953125,-0.06738281,-0.40625,-0.25,-0.1875,0.0,0.0,0.0
1696287650203,-1.0126953,-0.018554688,-0.06933594,-0.21875,-0.4375,-0.09375,0.0,0.0,0.0
1696287650296,-1.0019531,-0.0078125,-0.078125,-0.59375,-0.0625,-0.3125,0.0,0.0,0.0
1696287650300,-1.0078125,-0.01171875,-0.07324219,0.0625,-0.1875,-0.09375,0.0,0.0,0.0
1696287650386,-1.0029297,-0.0146484375,-0.07421875,-0.09375,-0.4375,-0.09375,-78.875,-19.9375,-201.0625
1696287650391,-1.0039062,-0.0087890625,-0.07324219,-0.65625,-0.0625,-0.125,0.0,0.0,0.0
1696287650411,-1.0068359,-0.026367188,-0.06347656,0.9375,-0.375,0.09375,0.0,0.0,0.0
1696287650447,-1.0039062,-0.0087890625,-0.0625,-0.53125,-0.3125,-0.03125,0.0,0.0,0.0
1696287650503,-1.0058594,-0.020507812,-0.091796875,0.125,-0.3125,-0.03125,0.0,0.0,0.0
1696287650534,-1.0136719,-0.0048828125,-0.07910156,0.0625,0.125,-0.09375,0.0,0.0,0.0
1696287650562,-1.0048828,-0.01171875,-0.0703125,-0.03125,-0.25,0.03125,0.0,0.0,0.0
1696287650625,-1.0087891,-0.0126953125,-0.064453125,-0.46875,0.0,-0.3125,0.0,0.0,0.0
1696287650651,-1.0048828,-0.013671875,-0.06933594,0.0,-0.4375,0.09375,0.0,0.0,0.0
1696287650680,-1.0048828,-0.0126953125,-0.078125,-0.34375,-0.25,-0.125,0.0,0.0,0.0
1696287650833,-1.0048828,-0.016601562,-0.0859375,-0.28125,-0.125,-0.03125,0.0,0.0,0.0
1696287650835,-0.9980469,-0.015625,-0.08691406,0.125,-0.4375,-0.03125,0.0,0.0,0.0
1696287650837,-1.0136719,-0.0126953125,-0.07519531,-0.34375,0.0625,-0.03125,-79.0625,-20.8125,-203.3125
1696287650861,-0.98828125,-0.021484375,-0.08203125,1.0,-0.71875,0.21875,0.0,0.0,0.0
1696287650895,-1.0058594,-0.0107421875,-0.06933594,-0.59375,0.4375,-0.03125,0.0,0.0,0.0
1696287650923,-1.0,-0.005859375,-0.07324219,1.53125,-0.84375,0.34375,0.0,0.0,0.0
1696287650984,-1.015625,-0.0146484375,-0.06347656,-0.59375,0.1875,-0.09375,0.0,0.0,0.0
1696287651013,-1.0029297,-0.013671875,-0.076171875,-0.40625,-0.3125,0.09375,0.0,0.0,0.0
1696287651043,-1.0019531,-0.0087890625,-0.08300781,0.3125,-0.125,-0.03125,0.0,0.0,0.0
1696287651106,-1.0097656,-0.009765625,-0.07910156,-0.96875,0.0625,-0.09375,0.0,0.0,0.0
1696287651133,-1.0078125,-0.005859375,-0.083984375,-0.03125,-0.125,-0.09375,0.0,0.0,0.0
1696287651161,-1.0048828,-0.015625,-0.056640625,-1.03125,0.25,-0.25,0.0,0.0,0.0
1696287651225,-1.0019531,-0.013671875,-0.0703125,0.0625,-0.3125,0.09375,0.0,0.0,0.0
1696287651251,-0.99902344,-0.009765625,-0.06640625,-0.65625,0.25,-0.25,0.0,0.0,0.0
1696287651281,-1.0117188,-0.016601562,-0.083984375,-0.03125,-0.0625,0.09375,0.0,0.0,0.0
1696287651343,-1.0097656,-0.0087890625,-0.064453125,0.0,0.0,-0.09375,-79.375,-21.25,-200.625
1696287651370,-0.9921875,-0.009765625,-0.080078125,-0.59375,-0.25,-0.03125,0.0,0.0,0.0
1696287651401,-1.0097656,-0.021484375,-0.05859375,0.125,0.1875,0.09375,0.0,0.0,0.0
1696287651465,-0.9980469,-0.0087890625,-0.076171875,0.6875,-0.1875,0.03125,0.0,0.0,0.0
1696287651491,-1.0068359,-0.0107421875,-0.08984375,0.0,-0.3125,0.28125,0.0,0.0,0.0
1696287651523,-1.015625,-0.0107421875,-0.0625,-0.34375,0.125,-0.1875,0.0,0.0,0.0
1696287651585,-0.9941406,-0.016601562,-0.07714844,0.4375,-0.5,0.21875,0.0,0.0,0.0
1696287651612,-1.0048828,-0.018554688,-0.07324219,-0.78125,0.3125,-0.375,0.0,0.0,0.0
1696287651642,-0.9980469,-0.0146484375,-0.078125,-0.09375,-0.375,0.15625,0.0,0.0,0.0
1696287651763,-1.0078125,-0.017578125,-0.07421875,-0.40625,0.125,-0.25,0.0,0.0,0.0
1696287651765,-1.0,-0.013671875,-0.091796875,-0.34375,-0.1875,-0.03125,0.0,0.0,0.0
1696287651767,-1.0087891,-0.0107421875,-0.07519531,0.0625,-0.1875,-0.03125,0.0,0.0,0.0
1696287651827,-1.0146484,-0.016601562,-0.07128906,-0.28125,0.0,-0.03125,-80.375,-20.5,-200.625
1696287651852,-1.0019531,-0.017578125,-0.08886719,0.6875,-0.5625,0.03125,0.0,0.0,0.0
1696287651882,-1.0087891,-0.0126953125,-0.08691406,-0.78125,0.0625,-0.3125,0.0,0.0,0.0
1696287651945,-1.0078125,-0.0146484375,-0.083984375,0.6875,-0.5,0.28125,0.0,0.0,0.0
1696287651973,-1.0,-0.0146484375,-0.07421875,1.0,-0.125,-0.125,0.0,0.0,0.0
1696287652003,-1.0166016,-0.016601562,-0.06933594,-0.40625,-0.3125,0.09375,0.0,0.0,0.0
1696287652062,-1.0078125,-0.009765625,-0.060546875,0.25,-0.4375,-0.09375,0.0,0.0,0.0
1696287652093,-1.0078125,-0.017578125,-0.064453125,0.0625,0.0,-0.125,0.0,0.0,0.0
1696287652123,-1.0019531,-0.0126953125,-0.064453125,-0.15625,-0.25,0.03125,0.0,0.0,0.0
1696287652187,-1.0058594,-0.01171875,-0.08300781,-0.34375,0.0,-0.1875,0.0,0.0,0.0
1696287652212,-1.0087891,-0.021484375,-0.076171875,-0.71875,-0.4375,0.03125,0.0,0.0,0.0
1696287652242,-0.99902344,-0.01953125,-0.06738281,-0.09375,0.0,-0.1875,0.0,0.0,0.0
1696287652367,-1.0087891,-0.016601562,-0.083984375,-0.40625,-0.125,-0.25,0.0,0.0,0.0
1696287652369,-1.0126953,-0.009765625,-0.07910156,-0.46875,-0.0625,-0.1875,-79.9375,-20.6875,-200.75
1696287652370,-1.0136719,-0.017578125,-0.06347656,0.0,-0.25,-0.03125,0.0,0.0,0.0
1696287652421,-1.0146484,-0.01953125,-0.059570312,0.0,0.0,-0.09375,0.0,0.0,0.0
1696287652454,-1.0048828,-0.013671875,-0.080078125,0.1875,-0.65625,0.03125,0.0,0.0,0.0
1696287652483,-1.0126953,-0.016601562,-0.10058594,0.375,-0.1875,0.03125,0.0,0.0,0.0
1696287652544,-0.99902344,-0.0048828125,-0.0859375,0.8125,-0.25,0.28125,0.0,0.0,0.0
1696287652576,-0.9970703,-0.0107421875,-0.07714844,0.9375,-0.71875,0.21875,0.0,0.0,0.0
1696287652599,-1.0048828,-0.0126953125,-0.0625,-0.28125,-0.125,-0.3125,0.0,0.0,0.0
1696287652754,-1.0039062,-0.005859375,-0.068359375,0.9375,-0.375,0.15625,0.0,0.0,0.0
1696287652757,-1.0087891,-0.0126953125,-0.07519531,-0.40625,-0.25,-0.3125,0.0,0.0,0.0
1696287652759,-0.9980469,-0.0107421875,-0.07519531,-0.78125,-0.1875,-0.125,0.0,0.0,0.0
1696287652780,-0.9980469,-0.005859375,-0.072265625,0.125,-0.3125,-0.1875,0.0,0.0,0.0
1696287652814,-1.0107422,-0.0146484375,-0.07324219,-0.90625,0.4375,-0.125,-79.9375,-18.5625,-201.8125
1696287652844,-1.0048828,-0.01953125,-0.08886719,0.375,-0.375,-0.09375,0.0,0.0,0.0
1696287652903,-1.0048828,-0.01953125,-0.078125,-1.15625,0.125,-0.375,0.0,0.0,0.0
1696287652931,-1.0175781,-0.01953125,-0.07324219,0.4375,-0.1875,0.03125,0.0,0.0,0.0
1696287652964,-0.99609375,-0.017578125,-0.060546875,-0.09375,-0.4375,-0.1875,0.0,0.0,0.0
1696287653026,-1.0146484,-0.0126953125,-0.080078125,-0.34375,-0.375,0.15625,0.0,0.0,0.0
1696287653050,-1.0019531,-0.0107421875,-0.05859375,0.25,-0.125,-0.1875,0.0,0.0,0.0
1696287653082,-1.0136719,-0.0146484375,-0.068359375,0.125,-0.3125,0.03125,0.0,0.0,0.0
1696287653146,-0.9970703,-0.0146484375,-0.08203125,-0.34375,-0.375,-0.09375,0.0,0.0,0.0
1696287653173,-1.0039062,-0.017578125,-0.080078125,-0.28125,-0.3125,-0.03125,0.0,0.0,0.0
1696287653203,-1.0048828,-0.01953125,-0.0625,-0.15625,-0.125,-0.125,0.0,0.0,0.0
1696287653293,-1.0048828,-0.0087890625,-0.07714844,-0.09375,-0.125,0.03125,0.0,0.0,0.0
1696287653298,-1.0117188,-0.018554688,-0.057617188,0.125,-0.25,0.09375,0.0,0.0,0.0
1696287653324,-1.0068359,-0.0087890625,-0.06933594,-0.40625,-0.0625,-0.125,-79.5,-20.375,-201.5
1696287653384,-0.9970703,-0.0126953125,-0.076171875,0.125,-0.4375,0.15625,0.0,0.0,0.0
1696287653412,-1.0019531,-0.01171875,-0.06640625,-0.53125,-0.25,-0.1875,0.0,0.0,0.0
1696287653444,-1.0078125,-0.013671875,-0.07519531,-0.90625,0.0,-0.1875,0.0,0.0,0.0
1696287653503,-1.0087891,-0.01171875,-0.07421875,0.4375,-0.25,0.03125,0.0,0.0,0.0
1696287653532,-1.0078125,-0.021484375,-0.0703125,-0.65625,-0.125,-0.03125,0.0,0.0,0.0
1696287653565,-1.0136719,-0.009765625,-0.06738281,0.4375,-0.125,0.15625,0.0,0.0,0.0
1696287653658,-1.0029297,-0.0126953125,-0.07910156,-0.03125,-0.0625,0.15625,0.0,0.0,0.0
1696287653660,-1.0078125,-0.013671875,-0.076171875,0.0,-0.65625,0.09375,0.0,0.0,0.0
1696287653682,-1.0136719,-0.022460938,-0.08203125,-0.09375,-0.125,-0.09375,0.0,0.0,0.0
1696287653745,-0.99902344,-0.005859375,-0.076171875,0.0625,-0.0625,0.09375,0.0,0.0,0.0
1696287653773,-1.0097656,-0.0078125,-0.06738281,0.0,-0.0625,0.09375,0.0,0.0,0.0
1696287653801,-1.0126953,-0.0126953125,-0.08203125,-0.28125,-0.0625,-0.03125,0.0,0.0,0.0
1696287653862,-1.0087891,-0.016601562,-0.06933594,-0.34375,-0.1875,-0.09375,-79.625,-18.6875,-201.625
1696287653891,-1.0087891,-0.017578125,-0.078125,-0.34375,-0.0625,-0.09375,0.0,0.0,0.0
1696287653924,-1.0078125,-0.017578125,-0.06933594,-0.40625,-0.1875,0.09375,0.0,0.0,0.0
1696287653986,-1.0087891,-9.765625E-4,-0.06933594,-0.53125,0.4375,-0.25,0.0,0.0,0.0
1696287654016,-1.0097656,-0.013671875,-0.072265625,-0.03125,-0.3125,0.15625,0.0,0.0,0.0
1696287654039,-1.0009766,-0.013671875,-0.0546875,-0.46875,0.125,-0.125,0.0,0.0,0.0
1696287654105,-1.0136719,-0.01953125,-0.0859375,0.0625,-0.1875,0.15625,0.0,0.0,0.0
1696287654130,-0.9980469,-0.013671875,-0.06640625,0.375,-0.125,-0.03125,0.0,0.0,0.0
1696287654163,-1.0136719,-0.021484375,-0.07519531,-0.03125,-0.1875,0.15625,0.0,0.0,0.0
1696287654256,-1.0068359,-0.018554688,-0.083984375,-0.15625,-0.5,-0.09375,0.0,0.0,0.0
1696287654263,-1.0039062,-0.0048828125,-0.080078125,0.375,-0.0625,0.09375,0.0,0.0,0.0
1696287654284,-1.0078125,-0.0146484375,-0.064453125,0.5,-0.25,0.28125,0.0,0.0,0.0
1696287654343,-1.0117188,-0.0087890625,-0.060546875,-0.09375,0.25,-0.125,-78.625,-20.0625,-202.25
