# Sensor type: Thingy
# Activity type: Descending stairs
# Activity subtype: Normal
# Subject id: s2094833
# Notes: 
timestamp,accel_x,accel_y,accel_z,gyro_x,gyro_y,gyro_z,mag_x,mag_y,mag_z
1696286763310,-1.7714844,0.0068359375,0.6689453,42.84375,-81.6875,-10.5,0.0,0.0,0.0
1696286763339,-1.8525391,0.41308594,0.4482422,92.625,-131.5,7.6875,-74.375,-18.4375,-171.9375
1696286763400,-1.3398438,0.2626953,0.51660156,45.03125,-116.59375,-3.75,0.0,0.0,0.0
1696286763431,-0.98535156,0.08496094,0.31933594,91.0625,-83.625,43.5625,0.0,0.0,0.0
1696286763461,-0.94433594,0.034179688,0.34375,104.40625,-38.53125,41.25,0.0,0.0,0.0
1696286763520,-0.65625,0.27148438,0.26464844,76.875,-7.28125,21.21875,0.0,0.0,0.0
1696286763551,-0.5205078,0.25585938,0.16308594,42.71875,10.90625,10.59375,0.0,0.0,0.0
1696286763581,-0.51660156,0.17382812,0.2607422,-13.25,32.34375,-2.53125,0.0,0.0,0.0
1696286763672,-0.46289062,0.15722656,0.16796875,-24.0,41.25,-8.4375,0.0,0.0,0.0
1696286763675,-0.66308594,0.16601562,0.26367188,-63.4375,74.15625,-16.96875,0.0,0.0,0.0
1696286763700,-0.6503906,0.0546875,0.27929688,-81.0,82.1875,-18.375,0.0,0.0,0.0
1696286763855,-0.6660156,-0.17285156,0.2529297,-48.1875,72.3125,-27.84375,0.0,0.0,0.0
1696286763856,-0.83984375,-0.08984375,0.5390625,54.3125,94.34375,-39.4375,0.0,0.0,0.0
1696286763857,-0.9794922,0.16992188,0.7285156,22.9375,39.46875,-44.6875,-73.8125,-17.0625,-177.625
1696286763880,-0.89746094,0.49414062,0.56933594,-29.6875,16.84375,-29.96875,0.0,0.0,0.0
1696286763910,-0.7919922,0.38476562,0.3076172,-58.65625,14.09375,-3.875,0.0,0.0,0.0
1696286763941,-0.7519531,0.23144531,0.08886719,-14.84375,-18.03125,20.0625,0.0,0.0,0.0
1696286764003,-1.5029297,-0.28710938,-0.25195312,-215.28125,18.90625,-2.8125,0.0,0.0,0.0
1696286764031,-2.0,-0.46679688,1.7822266,125.03125,-71.125,-19.90625,0.0,0.0,0.0
1696286764062,-0.9580078,-0.11621094,-0.484375,-393.25,-50.625,-70.5625,0.0,0.0,0.0
1696286764122,-1.0888672,0.18554688,-0.4638672,34.21875,-0.375,0.78125,0.0,0.0,0.0
1696286764149,-1.4697266,-0.4560547,0.6953125,223.3125,40.15625,24.8125,0.0,0.0,0.0
1696286764181,-1.1015625,-0.32617188,0.28710938,-37.5625,41.90625,-9.125,0.0,0.0,0.0
1696286764276,-0.92089844,0.00390625,0.043945312,14.9375,51.5625,9.5625,0.0,0.0,0.0
1696286764280,-0.75683594,-0.04296875,0.42871094,110.875,42.78125,17.875,0.0,0.0,0.0
1696286764299,-0.8496094,-0.22558594,0.41796875,-30.28125,34.34375,9.5625,0.0,0.0,0.0
1696286764359,-0.7089844,-0.18164062,0.34277344,-41.6875,19.875,3.40625,-78.3125,-22.9375,-179.625
1696286764395,-0.71191406,0.07519531,0.28710938,12.0,-4.90625,9.5625,0.0,0.0,0.0
1696286764417,-0.7109375,-0.04296875,0.18164062,11.21875,-24.84375,16.21875,0.0,0.0,0.0
1696286764479,-0.6953125,-0.034179688,0.3154297,-14.125,-30.71875,15.71875,0.0,0.0,0.0
1696286764510,-0.83203125,-0.013671875,0.10253906,-58.0,-30.71875,13.28125,0.0,0.0,0.0
1696286764542,-0.8574219,0.0234375,0.14941406,57.84375,-53.65625,21.53125,0.0,0.0,0.0
1696286764604,-0.89746094,-0.203125,0.4609375,35.03125,-36.15625,11.9375,0.0,0.0,0.0
1696286764630,-1.1132812,-0.38085938,0.2421875,-6.3125,-43.78125,4.125,0.0,0.0,0.0
1696286764661,-1.8017578,-0.20800781,0.77246094,123.09375,-135.15625,-0.625,0.0,0.0,0.0
1696286764812,-1.5830078,0.43847656,0.32617188,59.6875,-144.90625,16.65625,0.0,0.0,0.0
1696286764816,-0.9941406,0.4169922,0.5419922,79.6875,-137.34375,34.53125,0.0,0.0,0.0
1696286764818,-1.2998047,-0.1328125,0.67089844,80.0625,-111.40625,63.59375,0.0,0.0,0.0
1696286764839,-0.8203125,0.1640625,0.3125,109.46875,-76.25,40.34375,-63.3125,-13.3125,-168.5
1696286764937,-0.44335938,0.28808594,0.41015625,84.625,-27.96875,10.46875,0.0,0.0,0.0
1696286764938,-0.45898438,0.2109375,0.3359375,31.25,13.59375,-6.125,0.0,0.0,0.0
1696286764993,-0.37695312,0.11328125,0.35546875,-22.21875,54.96875,-38.09375,0.0,0.0,0.0
1696286764995,-0.4482422,0.24511719,0.3076172,-36.28125,79.15625,-40.25,0.0,0.0,0.0
1696286765019,-0.65722656,0.23632812,0.33398438,-36.8125,99.34375,-41.03125,0.0,0.0,0.0
1696286765110,-0.6113281,0.109375,0.28222656,-39.1875,117.96875,-34.5625,0.0,0.0,0.0
1696286765140,-0.85253906,-0.22070312,0.25390625,-39.8125,126.5625,-51.34375,0.0,0.0,0.0
1696286765141,-0.88671875,0.034179688,0.4482422,1.3125,136.65625,-63.1875,0.0,0.0,0.0
1696286765201,-0.8496094,0.22460938,0.8535156,30.0,42.21875,-24.5625,0.0,0.0,0.0
1696286765231,-0.9716797,0.025390625,0.31347656,-82.78125,15.0,-33.53125,0.0,0.0,0.0
1696286765260,-0.9453125,0.31640625,0.4482422,-28.59375,-0.875,-25.28125,0.0,0.0,0.0
1696286765414,-0.84375,0.13964844,0.49023438,-14.25,-7.65625,-5.5625,0.0,0.0,0.0
1696286765418,-1.1533203,-0.08691406,0.0,-65.5,3.28125,-13.625,-76.8125,-22.3125,-185.0
1696286765420,-1.7939453,0.1796875,1.0263672,-26.4375,-53.0,1.4375,0.0,0.0,0.0
1696286765443,-1.0019531,-0.27246094,-0.37890625,-188.25,-13.5,-21.75,0.0,0.0,0.0
1696286765471,-1.6679688,-0.057617188,0.22753906,146.96875,-9.53125,4.6875,0.0,0.0,0.0
1696286765503,-1.2451172,-0.21484375,0.4814453,17.1875,15.3125,-16.96875,0.0,0.0,0.0
1696286765565,-1.1367188,-0.15136719,0.10058594,-37.125,39.21875,-19.90625,0.0,0.0,0.0
1696286765590,-0.9951172,0.017578125,0.11816406,18.40625,53.625,-5.3125,0.0,0.0,0.0
1696286765624,-0.79296875,0.07324219,0.1015625,96.53125,41.5625,10.375,0.0,0.0,0.0
1696286765678,-0.7714844,-0.12402344,0.5410156,49.71875,29.15625,3.90625,0.0,0.0,0.0
1696286765711,-0.78515625,-0.12988281,0.3857422,-115.90625,18.84375,-8.3125,0.0,0.0,0.0
1696286765739,-0.7265625,-0.11230469,0.20410156,-17.53125,2.375,-1.25,0.0,0.0,0.0
1696286765859,-0.7080078,-0.051757812,0.29003906,46.875,-13.0625,11.40625,0.0,0.0,0.0
1696286765861,-0.6738281,-0.16796875,0.29785156,4.9375,-15.46875,10.59375,0.0,0.0,0.0
1696286765861,-0.9609375,-0.23242188,0.25585938,-58.65625,-6.65625,-5.75,-78.625,-22.9375,-187.875
1696286765919,-0.9316406,-0.2734375,0.061523438,-64.53125,-9.0625,-12.53125,0.0,0.0,0.0
1696286765951,-0.8388672,-0.09472656,0.203125,14.15625,-21.9375,-5.09375,0.0,0.0,0.0
1696286765982,-0.9453125,0.049804688,0.50683594,56.5625,-47.0625,7.90625,0.0,0.0,0.0
1696286766044,-1.3369141,-0.4765625,0.41992188,55.21875,-91.8125,6.6875,0.0,0.0,0.0
1696286766069,-1.6337891,-0.08105469,0.37695312,-29.1875,-95.15625,-17.71875,0.0,0.0,0.0
1696286766101,-1.3095703,0.45703125,0.10546875,50.875,-98.90625,2.78125,0.0,0.0,0.0
1696286766166,-1.1513672,0.16113281,0.28808594,89.84375,-84.375,34.09375,0.0,0.0,0.0
1696286766222,-1.1386719,0.03125,0.31152344,33.4375,-12.46875,22.75,0.0,0.0,0.0
1696286766225,-0.7246094,0.11816406,0.23144531,-9.46875,16.21875,14.625,0.0,0.0,0.0
1696286766284,-0.5439453,0.19726562,0.13183594,-28.28125,35.8125,18.0,0.0,0.0,0.0
1696286766400,-0.54296875,0.111328125,0.07421875,11.8125,47.65625,21.21875,0.0,0.0,0.0
1696286766402,-0.6748047,-0.068359375,0.27441406,116.6875,65.34375,1.875,-77.375,-17.8125,-180.8125
1696286766433,-0.7324219,-0.18847656,0.44726562,84.21875,55.03125,-13.75,0.0,0.0,0.0
1696286766491,-0.7392578,-0.076171875,0.3671875,43.625,65.34375,-38.65625,0.0,0.0,0.0
1696286766522,-0.85839844,0.25,0.6777344,30.3125,48.75,-37.25,0.0,0.0,0.0
1696286766584,-0.95703125,0.15722656,0.3388672,-86.0625,28.3125,-28.34375,0.0,0.0,0.0
1696286766610,-0.85253906,0.2841797,0.23535156,-82.59375,22.75,-22.65625,0.0,0.0,0.0
1696286766615,-0.578125,0.14257812,0.4560547,18.40625,12.1875,-0.25,0.0,0.0,0.0
1696286766617,-1.2861328,0.20214844,0.6542969,7.125,7.375,15.3125,0.0,0.0,0.0
1696286766763,-1.4667969,-0.4501953,-0.23925781,-238.84375,-1.25,-9.0625,0.0,0.0,0.0
1696286766767,-1.1210938,-0.13574219,-0.06933594,-36.875,-35.125,-11.4375,0.0,0.0,0.0
1696286766769,-1.7890625,0.013671875,0.22851562,95.3125,-24.0625,8.71875,0.0,0.0,0.0
1696286766790,-0.9316406,-0.11328125,0.060546875,-123.84375,-14.34375,-15.59375,0.0,0.0,0.0
1696286766823,-1.3896484,-0.54296875,-0.0146484375,45.46875,30.875,-7.65625,0.0,0.0,0.0
1696286766878,-1.1269531,-0.060546875,0.35058594,-6.65625,43.3125,-24.125,-81.4375,-19.75,-186.5
1696286766911,-0.9013672,-0.13085938,-0.015625,53.5625,45.15625,2.5,0.0,0.0,0.0
1696286766938,-0.7949219,-0.0146484375,0.36523438,172.96875,46.1875,9.25,0.0,0.0,0.0
1696286766969,-0.8300781,-0.08300781,0.27734375,-9.78125,40.6875,3.40625,0.0,0.0,0.0
1696286767029,-0.75,-0.099609375,0.3515625,28.25,29.21875,7.25,0.0,0.0,0.0
1696286767060,-0.69921875,-0.061523438,0.2763672,48.25,11.71875,10.46875,0.0,0.0,0.0
1696286767090,-0.76660156,-0.21875,0.16015625,52.0,-1.78125,19.15625,0.0,0.0,0.0
1696286767155,-0.78808594,-0.27148438,0.16796875,44.90625,7.90625,19.34375,0.0,0.0,0.0
1696286767185,-0.921875,-0.19433594,0.22460938,107.96875,-1.0,14.15625,0.0,0.0,0.0
1696286767212,-0.90625,-0.115234375,0.20410156,101.3125,-3.0625,13.40625,0.0,0.0,0.0
1696286767304,-0.8359375,-0.07421875,0.10546875,84.46875,13.84375,9.125,0.0,0.0,0.0
1696286767307,-1.0117188,-0.0146484375,0.49804688,109.46875,-9.78125,15.96875,0.0,0.0,0.0
1696286767364,-1.9072266,-0.0390625,0.5644531,-9.71875,-90.34375,14.375,-82.1875,-16.9375,-201.9375
1696286767390,-1.625,0.0,0.10449219,69.0625,-140.75,-16.4375,0.0,0.0,0.0
1696286767419,-1.2880859,-0.013671875,0.19824219,-13.0625,-102.8125,-17.65625,0.0,0.0,0.0
1696286767452,-1.2431641,-0.4267578,0.24707031,-45.125,-48.78125,-18.875,0.0,0.0,0.0
1696286767515,-1.2548828,-0.35351562,-0.12402344,223.6875,-53.25,-18.75,0.0,0.0,0.0
1696286767542,-0.92089844,0.11816406,-0.0546875,267.3125,-76.96875,-46.46875,0.0,0.0,0.0
1696286767570,-0.6298828,0.2890625,0.051757812,212.375,-20.21875,-45.375,0.0,0.0,0.0
1696286767868,-0.68066406,0.2919922,0.055664062,133.40625,6.15625,-53.71875,0.0,0.0,0.0
1696286767870,-0.49804688,0.48339844,0.07324219,96.0625,14.75,-43.46875,0.0,0.0,0.0
1696286767873,-0.765625,0.0390625,0.29296875,79.6875,40.21875,-33.84375,0.0,0.0,0.0
1696286767874,-1.0107422,0.24414062,0.7753906,99.59375,9.375,-23.28125,0.0,0.0,0.0
1696286767876,-1.1738281,0.16992188,0.96875,97.21875,-36.15625,-4.46875,0.0,0.0,0.0
1696286767878,-0.86328125,0.109375,0.4501953,34.53125,-22.65625,-39.625,0.0,0.0,0.0
1696286767880,-1.0126953,0.16796875,0.54589844,65.34375,-0.375,-48.1875,-84.125,-23.8125,-194.125
1696286767900,-1.4833984,0.16308594,0.23339844,0.21875,26.78125,-55.875,0.0,0.0,0.0
1696286767930,-0.84277344,0.19042969,-0.31054688,34.59375,-1.46875,-27.53125,0.0,0.0,0.0
1696286767991,-0.61816406,0.18261719,-0.10253906,-26.1875,13.90625,21.96875,0.0,0.0,0.0
1696286768019,-1.2558594,-0.1328125,-0.13183594,22.625,26.03125,50.59375,0.0,0.0,0.0
1696286768051,-1.4707031,-0.5292969,-0.19042969,77.875,68.09375,-29.5625,0.0,0.0,0.0
1696286768114,-0.9482422,-0.033203125,0.20410156,50.34375,74.6875,-79.0625,0.0,0.0,0.0
1696286768139,-0.94921875,0.091796875,0.31933594,45.09375,39.0625,-53.125,0.0,0.0,0.0
1696286768172,-0.8701172,-0.005859375,-0.00390625,-42.4375,33.25,-28.9375,0.0,0.0,0.0
1696286768294,-0.90234375,-0.123046875,-0.0029296875,38.4375,49.96875,-20.84375,0.0,0.0,0.0
1696286768296,-0.9580078,-0.16210938,0.16015625,80.625,48.4375,-12.46875,0.0,0.0,0.0
1696286768301,-0.9589844,-0.21484375,0.056640625,18.96875,38.3125,-20.875,0.0,0.0,0.0
1696286768384,-0.99121094,-0.0859375,0.06933594,26.96875,40.5,-16.125,-82.9375,-32.9375,-208.875
1696286768387,-1.0039062,0.12988281,0.043945312,70.65625,46.25,-6.5,0.0,0.0,0.0
1696286768409,-1.0458984,0.16503906,0.31445312,42.28125,72.4375,6.8125,0.0,0.0,0.0
1696286768475,-1.1269531,-0.11621094,0.19042969,-58.90625,-11.625,20.96875,0.0,0.0,0.0
1696286768500,-1.0986328,-0.16308594,-0.18261719,-37.1875,-7.03125,13.53125,0.0,0.0,0.0
1696286768529,-1.3671875,-0.5029297,0.39746094,47.90625,7.0,15.84375,0.0,0.0,0.0
1696286768595,-1.2773438,-0.57910156,-0.125,57.78125,-71.3125,21.28125,0.0,0.0,0.0
1696286768622,-1.0429688,0.25585938,0.025390625,103.8125,-143.4375,29.03125,0.0,0.0,0.0
1696286768651,-0.8564453,0.09375,-0.068359375,109.96875,-125.3125,35.6875,0.0,0.0,0.0
1696286768801,-1.3984375,-0.66308594,-0.20703125,186.03125,-136.90625,11.03125,0.0,0.0,0.0
1696286768804,-1.0576172,-0.3310547,-0.049804688,65.28125,-117.5,-10.21875,0.0,0.0,0.0
1696286768806,-1.0751953,0.01953125,-0.041992188,18.84375,-87.96875,-12.59375,0.0,0.0,0.0
1696286768831,-0.96777344,-0.12109375,0.25,261.03125,-122.40625,-39.03125,0.0,0.0,0.0
1696286768861,-0.7597656,0.0029296875,0.022460938,167.59375,-53.40625,-55.5,-81.4375,-33.25,-185.75
1696286768890,-0.8798828,0.10253906,0.043945312,154.84375,-26.75,-72.34375,0.0,0.0,0.0
1696286768954,-0.6279297,0.49902344,0.1953125,118.5625,-6.4375,-58.0625,0.0,0.0,0.0
1696286768979,-0.62597656,0.265625,0.34375,69.8125,39.46875,-50.84375,0.0,0.0,0.0
1696286769010,-1.0234375,-0.046875,0.45703125,74.375,55.09375,-53.71875,0.0,0.0,0.0
1696286769076,-0.9873047,0.17773438,1.0117188,137.5625,0.03125,-36.21875,0.0,0.0,0.0
1696286769104,-0.79296875,0.30273438,0.37695312,66.8125,-21.5,-18.3125,0.0,0.0,0.0
1696286769132,-0.5371094,-0.04296875,0.35742188,111.0,-27.40625,-34.5625,0.0,0.0,0.0
1696286769195,-1.5058594,0.087890625,0.24804688,-77.21875,27.5625,-28.09375,0.0,0.0,0.0
1696286769219,-1.1513672,0.125,-0.25195312,-8.5625,-42.4375,-20.28125,0.0,0.0,0.0
1696286769252,-0.7734375,0.068359375,-0.25097656,-28.6875,50.46875,-13.375,0.0,0.0,0.0
1696286769309,-1.3310547,-0.32910156,0.3486328,179.375,44.0,6.28125,0.0,0.0,0.0
1696286769341,-1.0507812,-0.12597656,0.20898438,-77.84375,38.5,-48.96875,-84.0,-38.6875,-185.75
1696286769370,-0.96484375,-0.13183594,-0.0087890625,20.625,23.125,-45.0,0.0,0.0,0.0
1696286769435,-0.85839844,-0.061523438,0.27929688,118.75,32.09375,-28.09375,0.0,0.0,0.0
1696286769459,-0.88378906,-0.2685547,0.41210938,15.4375,34.15625,-27.1875,0.0,0.0,0.0
1696286769490,-0.88378906,-0.16796875,0.14648438,-38.53125,31.34375,-33.71875,0.0,0.0,0.0
1696286769554,-0.93652344,0.13574219,0.12988281,94.34375,18.34375,-11.3125,0.0,0.0,0.0
1696286769580,-0.7636719,0.14648438,0.34472656,153.71875,-17.90625,17.1875,0.0,0.0,0.0
1696286769611,-0.75878906,0.07324219,0.44921875,32.34375,-13.375,10.84375,0.0,0.0,0.0
1696286769703,-0.7988281,-0.20996094,0.1796875,-57.6875,-32.71875,2.3125,0.0,0.0,0.0
1696286769730,-0.6503906,-0.140625,0.041992188,37.28125,-18.4375,4.0,0.0,0.0,0.0
1696286769759,-0.9609375,-0.15527344,0.32421875,50.875,-8.5625,7.6875,0.0,0.0,0.0
1696286769817,-0.9707031,-0.055664062,0.19042969,3.28125,-0.8125,14.5,0.0,0.0,0.0
1696286769848,-0.9482422,0.15429688,0.2421875,-58.71875,-11.0625,17.375,0.0,0.0,0.0
1696286769850,-0.80566406,0.04296875,0.115234375,-52.5625,-5.25,25.6875,-87.125,-38.5,-183.1875
1696286769909,-1.0400391,-0.23242188,0.703125,14.4375,-59.09375,32.46875,0.0,0.0,0.0
1696286769972,-1.9765625,-0.26953125,0.6298828,78.34375,-130.6875,18.71875,0.0,0.0,0.0
1696286770000,-1.6611328,0.4736328,0.28125,57.53125,-138.25,27.09375,0.0,0.0,0.0
1696286770030,-1.2158203,0.87402344,0.32421875,-32.25,-122.8125,57.78125,0.0,0.0,0.0
1696286770255,-0.84277344,-0.18066406,0.28515625,-16.5,-57.5,38.1875,0.0,0.0,0.0
1696286770258,-1.0634766,-0.09863281,0.28710938,44.1875,-43.84375,38.8125,0.0,0.0,0.0
1696286770260,-0.6845703,0.35839844,0.20703125,34.03125,-20.15625,20.75,0.0,0.0,0.0
1696286770261,-0.38378906,0.453125,0.25878906,18.21875,8.34375,10.59375,0.0,0.0,0.0
1696286770262,-0.52734375,0.14160156,0.15429688,-37.1875,53.09375,10.375,0.0,0.0,0.0
1696286770267,-0.43066406,0.0078125,0.17382812,-64.46875,67.1875,-10.03125,0.0,0.0,0.0
1696286770304,-0.51953125,-0.1328125,0.20898438,-39.25,95.6875,-41.59375,0.0,0.0,0.0
1696286770329,-0.82421875,-0.04296875,0.36914062,28.375,126.75,-53.71875,-82.625,-30.4375,-174.0625
1696286770390,-0.8623047,0.1171875,0.3779297,5.65625,87.4375,-58.59375,0.0,0.0,0.0
1696286770421,-1.0439453,0.21875,0.64453125,18.40625,77.0625,-44.625,0.0,0.0,0.0
1696286770454,-0.95214844,0.4951172,0.609375,-51.09375,50.71875,-35.0625,0.0,0.0,0.0
1696286770508,-0.7939453,0.3642578,0.3515625,-33.03125,13.46875,-1.25,0.0,0.0,0.0
1696286770538,-1.1708984,0.48242188,0.8457031,94.21875,-12.96875,39.71875,0.0,0.0,0.0
1696286770569,-1.53125,-0.76171875,-0.2998047,-237.25,15.125,-7.78125,0.0,0.0,0.0
1696286770662,-1.1572266,-0.2939453,-0.041015625,-136.125,-10.09375,-19.4375,0.0,0.0,0.0
1696286770664,-2.0,-0.036132812,0.16113281,57.34375,-5.625,-0.6875,0.0,0.0,0.0
1696286770690,-0.89746094,0.0068359375,-0.09667969,-128.5,-6.0,-14.40625,0.0,0.0,0.0
1696286770753,-1.34375,-0.32910156,9.765625E-4,101.0,38.6875,4.0,0.0,0.0,0.0
1696286770780,-1.0634766,-0.09472656,0.3876953,-44.375,43.4375,-14.125,0.0,0.0,0.0
1696286770813,-0.8105469,-0.16601562,0.024414062,-12.90625,42.46875,1.625,0.0,0.0,0.0
1696286770873,-0.75097656,-0.02734375,0.21582031,98.5625,37.21875,13.03125,-82.1875,-38.375,-188.125
1696286770930,-0.79589844,-0.01171875,0.52734375,24.40625,22.9375,14.9375,0.0,0.0,0.0
1696286770962,-0.5966797,-0.076171875,0.21289062,-67.34375,5.84375,2.84375,0.0,0.0,0.0
1696286770989,-0.6328125,-0.02734375,0.3046875,7.3125,-7.03125,8.03125,0.0,0.0,0.0
1696286771056,-0.6513672,-0.15625,0.19238281,-26.5625,-11.96875,17.1875,0.0,0.0,0.0
1696286771081,-0.79296875,-0.20703125,0.25878906,-37.78125,-25.84375,11.59375,0.0,0.0,0.0
1696286771112,-0.7128906,-0.3828125,-0.02734375,24.34375,-24.375,12.5,0.0,0.0,0.0
1696286771140,-0.93652344,-0.13964844,0.3095703,112.21875,-54.875,15.3125,0.0,0.0,0.0
1696286771171,-1.6523438,-0.2734375,0.66308594,36.125,-94.0,-15.9375,0.0,0.0,0.0
1696286771232,-1.6132812,0.29589844,0.37695312,-39.5,-78.25,-30.40625,0.0,0.0,0.0
1696286771259,-1.6289062,0.53027344,0.2919922,-28.75,-93.34375,2.375,0.0,0.0,0.0
1696286771293,-1.2988281,0.25585938,0.4482422,25.6875,-101.8125,22.09375,0.0,0.0,0.0
1696286771353,-1.0351562,-0.072265625,0.39160156,18.1875,-45.3125,17.625,-76.1875,-35.8125,-176.75
1696286771379,-0.8544922,0.140625,0.24121094,50.65625,-22.78125,26.03125,0.0,0.0,0.0
1696286771409,-0.79003906,0.22753906,0.2685547,48.9375,-17.28125,29.84375,0.0,0.0,0.0
1696286771472,-0.5371094,0.30664062,0.19726562,66.875,-9.59375,45.09375,0.0,0.0,0.0
1696286771507,-0.48535156,0.15429688,0.20019531,76.8125,19.40625,49.96875,0.0,0.0,0.0
1696286771593,-0.65625,0.0390625,0.26660156,4.1875,59.75,13.84375,0.0,0.0,0.0
1696286771595,-0.5439453,-0.07910156,0.13085938,-67.75,71.53125,-30.46875,0.0,0.0,0.0
1696286771620,-0.5917969,-0.10449219,0.036132812,-66.59375,117.53125,-63.1875,0.0,0.0,0.0
1696286771680,-0.7207031,-0.203125,0.09375,-52.375,123.75,-70.5625,0.0,0.0,0.0
1696286771708,-0.81347656,-0.05078125,0.22753906,74.9375,111.625,-66.25,0.0,0.0,0.0
1696286771743,-0.9082031,0.75,1.1738281,100.6875,42.71875,-37.1875,0.0,0.0,0.0
1696286771770,-0.7324219,0.3017578,0.14746094,-219.3125,-16.9375,-1.96875,0.0,0.0,0.0
1696286771831,-1.7470703,0.2685547,0.6191406,69.5625,-81.8125,35.15625,0.0,0.0,0.0
1696286771861,-1.9443359,-0.53222656,0.3330078,-68.3125,-120.0,1.09375,-78.0,-35.8125,-190.25
1696286771889,-1.2900391,0.03125,0.0390625,-38.21875,-34.5,-11.5,0.0,0.0,0.0
1696286771987,-1.3164062,-0.29882812,0.390625,-4.59375,-10.21875,-0.125,0.0,0.0,0.0
1696286772010,-1.2880859,-0.3544922,-0.28027344,-76.5625,35.8125,-9.59375,0.0,0.0,0.0
1696286772039,-1.1708984,-0.025390625,0.08300781,111.75,52.71875,5.46875,0.0,0.0,0.0
1696286772099,-0.8300781,0.13183594,0.25097656,104.0,37.875,14.28125,0.0,0.0,0.0
1696286772129,-0.75878906,-0.020507812,0.24414062,27.5,30.9375,14.8125,0.0,0.0,0.0
1696286772130,-0.6464844,-0.016601562,0.33203125,-13.3125,14.4375,21.34375,0.0,0.0,0.0
1696286772193,-0.6972656,-0.24316406,0.32128906,-51.40625,-11.5625,18.28125,0.0,0.0,0.0
1696286772219,-0.6347656,-0.13476562,0.060546875,-47.125,-23.09375,4.75,0.0,0.0,0.0
1696286772251,-0.6982422,0.0029296875,0.13671875,1.4375,-27.125,8.59375,0.0,0.0,0.0
1696286772312,-0.46679688,-0.07910156,0.07910156,-49.75,-16.625,3.65625,0.0,0.0,0.0
1696286772465,-1.0722656,-0.5761719,0.56933594,71.34375,-43.03125,3.53125,-77.6875,-37.0,-191.4375
1696286772467,-0.9707031,-0.19628906,-0.033203125,4.25,-27.46875,-18.4375,0.0,0.0,0.0
1696286772468,-0.8984375,0.3232422,0.35546875,121.8125,-99.125,3.03125,0.0,0.0,0.0
1696286772469,-1.6796875,-0.10644531,0.8515625,34.84375,-132.71875,1.03125,0.0,0.0,0.0
1696286772490,-1.6494141,0.24121094,0.5253906,-2.6875,-91.8125,-11.0625,0.0,0.0,0.0
1696286772552,-1.3691406,0.07910156,0.45703125,40.9375,-84.65625,10.46875,0.0,0.0,0.0
1696286772580,-1.0429688,0.10839844,0.5175781,74.625,-75.15625,29.65625,0.0,0.0,0.0
1696286772609,-0.9794922,0.20117188,0.36035156,54.6875,-11.5625,21.15625,0.0,0.0,0.0
1696286772674,-0.9716797,0.328125,0.3046875,53.15625,10.46875,18.53125,0.0,0.0,0.0
1696286772699,-0.6298828,0.43066406,0.24707031,13.71875,25.625,13.71875,0.0,0.0,0.0
1696286772729,-0.5185547,0.17382812,0.2705078,20.84375,32.5625,21.65625,0.0,0.0,0.0
1696286772793,-0.43652344,-0.125,0.15625,-28.8125,56.5625,3.34375,0.0,0.0,0.0
1696286772819,-0.4658203,-0.1328125,0.26464844,-48.34375,74.25,-23.625,0.0,0.0,0.0
1696286772849,-0.66503906,-0.034179688,0.16699219,-7.28125,81.09375,-41.03125,-73.9375,-29.0625,-176.75
1696286772908,-0.84765625,-0.0048828125,0.22070312,24.34375,88.25,-48.84375,0.0,0.0,0.0
1696286772940,-0.79003906,0.12988281,0.91308594,-22.90625,93.3125,-53.65625,0.0,0.0,0.0
1696286772973,-0.7089844,0.12890625,0.3564453,-95.15625,29.84375,-31.5,0.0,0.0,0.0
1696286773092,-0.80566406,0.005859375,0.21191406,-27.90625,22.875,-22.96875,0.0,0.0,0.0
1696286773094,-0.9658203,0.17089844,0.4794922,75.25,30.0625,-10.4375,0.0,0.0,0.0
1696286773096,-1.59375,-0.072265625,0.8955078,-171.9375,-37.625,-0.4375,0.0,0.0,0.0
1696286773151,-1.6669922,0.08105469,0.27441406,-296.84375,14.3125,-52.125,0.0,0.0,0.0
1696286773181,-0.8671875,-0.099609375,-0.390625,-76.25,-45.65625,-4.34375,0.0,0.0,0.0
1696286773210,-1.7871094,-0.42382812,0.32421875,192.1875,47.15625,17.5625,0.0,0.0,0.0
1696286773334,-1.2441406,-0.14648438,0.22949219,-119.59375,22.03125,-31.3125,0.0,0.0,0.0
1696286773337,-1.0703125,0.02734375,-0.40722656,39.46875,21.96875,8.71875,0.0,0.0,0.0
1696286773339,-1.0380859,0.009765625,0.3017578,175.28125,35.375,23.78125,-71.6875,-43.4375,-188.75
1696286773390,-0.92089844,-0.095703125,0.14355469,7.125,35.5,11.40625,0.0,0.0,0.0
1696286773419,-0.77734375,0.005859375,0.13964844,38.3125,33.1875,13.84375,0.0,0.0,0.0
1696286773451,-0.8144531,-0.15917969,0.33789062,-4.96875,28.375,16.34375,0.0,0.0,0.0
1696286773600,-0.8066406,-0.24023438,0.13574219,-11.125,24.21875,19.09375,0.0,0.0,0.0
1696286773630,-0.7236328,-0.1171875,0.18457031,30.0,14.625,20.25,0.0,0.0,0.0
1696286773633,-0.9580078,-0.08691406,0.35546875,48.03125,15.625,24.59375,0.0,0.0,0.0
1696286773635,-0.9267578,-0.3486328,0.29003906,-8.0625,7.75,18.0,0.0,0.0,0.0
1696286773661,-0.8144531,-0.21582031,0.125,34.40625,-5.4375,13.03125,0.0,0.0,0.0
1696286773691,-0.79589844,-0.1015625,0.015625,105.5,-14.125,14.3125,0.0,0.0,0.0
1696286773752,-0.921875,0.07714844,0.35253906,176.5,-5.8125,19.21875,0.0,0.0,0.0
1696286773780,-0.8408203,-0.16796875,0.1953125,44.34375,4.6875,15.0,0.0,0.0,0.0
1696286773812,-0.94921875,-0.2529297,0.44921875,49.59375,-21.0,29.15625,0.0,0.0,0.0
1696286774023,-1.7216797,-0.20898438,0.5078125,76.34375,-107.375,25.9375,-74.5625,-38.8125,-187.6875
1696286774025,-1.875,-0.23925781,0.13671875,135.3125,-157.3125,-18.625,0.0,0.0,0.0
1696286774027,-1.3203125,0.3564453,9.765625E-4,52.53125,-101.75,-31.03125,0.0,0.0,0.0
1696286774028,-1.2392578,-0.087890625,0.32617188,-0.5625,-82.46875,-47.25,0.0,0.0,0.0
1696286774029,-1.3681641,-0.61621094,-0.3125,141.78125,-49.21875,-34.0625,0.0,0.0,0.0
1696286774049,-0.8261719,-0.087890625,-0.28027344,270.6875,-71.25,-85.90625,0.0,0.0,0.0
1696286774110,-0.46777344,0.41308594,-0.17675781,239.71875,-11.5,-75.09375,0.0,0.0,0.0
1696286774140,-0.3798828,0.6503906,0.041015625,152.28125,26.90625,-59.53125,0.0,0.0,0.0
1696286774171,-0.625,0.27929688,0.16113281,117.28125,63.28125,-32.25,0.0,0.0,0.0
1696286774234,-1.1689453,-0.060546875,0.6699219,62.1875,73.65625,-54.6875,0.0,0.0,0.0
1696286774259,-1.1875,0.09375,1.0058594,191.9375,-41.03125,0.96875,0.0,0.0,0.0
1696286774320,-0.6044922,0.5175781,0.33398438,65.28125,-21.875,-13.5,0.0,0.0,0.0
1696286774349,-0.74121094,-0.047851562,-0.07910156,57.40625,29.28125,-50.84375,-67.5,-31.1875,-171.9375
1696286774383,-2.0,-1.1669922,1.0966797,-41.46875,31.96875,-31.9375,0.0,0.0,0.0
1696286774410,-0.38964844,0.15234375,-0.5058594,-56.0,-6.125,-68.625,0.0,0.0,0.0
1696286774562,-0.71484375,0.14453125,-0.11035156,-3.1875,39.96875,8.59375,0.0,0.0,0.0
1696286774564,-1.6181641,-0.4189453,-0.37890625,105.6875,23.375,3.90625,0.0,0.0,0.0
1696286774565,-1.0839844,0.07324219,-0.08984375,95.4375,72.25,-54.59375,0.0,0.0,0.0
1696286774567,-0.9326172,0.3798828,0.64941406,244.5,98.75,-42.9375,0.0,0.0,0.0
1696286774652,-0.8886719,-0.39648438,0.10839844,-1.65625,25.75,-22.65625,0.0,0.0,0.0
1696286774654,-0.8925781,-0.02734375,-0.0234375,-55.6875,40.9375,-25.65625,0.0,0.0,0.0
1696286774716,-0.97753906,-0.083984375,0.07421875,77.25,38.25,-10.21875,0.0,0.0,0.0
1696286774740,-0.9863281,-0.265625,0.05859375,37.8125,25.5,-9.78125,0.0,0.0,0.0
1696286774771,-0.9326172,-0.14453125,-0.0234375,-14.40625,35.25,-10.15625,0.0,0.0,0.0
1696286775037,-0.93652344,-0.10644531,-0.08203125,30.75,35.625,-0.625,0.0,0.0,0.0
1696286775039,-0.85253906,-0.140625,-0.009765625,84.28125,27.375,-4.46875,-76.1875,-32.6875,-183.375
1696286775041,-1.1396484,-0.12402344,0.037109375,12.0625,41.375,-5.4375,0.0,0.0,0.0
1696286775042,-1.1396484,0.09863281,0.03125,-15.34375,41.4375,-1.71875,0.0,0.0,0.0
1696286775044,-1.0458984,-0.068359375,0.2265625,87.21875,21.15625,18.78125,0.0,0.0,0.0
1696286775045,-1.0908203,-0.3828125,0.21191406,24.71875,4.375,28.125,0.0,0.0,0.0
1696286775046,-1.3349609,-0.5175781,0.0546875,12.0,-14.0,23.53125,0.0,0.0,0.0
1696286775100,-1.3798828,-0.45898438,0.23339844,119.6875,-54.34375,20.4375,0.0,0.0,0.0
1696286775131,-1.0654297,0.16699219,0.22167969,104.125,-114.34375,24.65625,0.0,0.0,0.0
1696286775161,-0.8876953,0.2109375,-0.07714844,-23.875,-135.9375,36.25,0.0,0.0,0.0
1696286775254,-1.0185547,-0.60058594,0.00390625,50.9375,-115.5,22.5625,0.0,0.0,0.0
1696286775257,-1.1503906,-0.6982422,-0.28027344,140.375,-106.59375,-7.15625,0.0,0.0,0.0
1696286775279,-0.98828125,-0.080078125,0.028320312,136.46875,-95.09375,-25.78125,0.0,0.0,0.0
1696286775342,-1.1826172,-0.119140625,-0.18164062,208.96875,-22.21875,-62.8125,-67.5,-20.0625,-172.25
1696286775372,-1.0136719,-0.36328125,-0.047851562,245.65625,-83.625,-81.75,0.0,0.0,0.0
1696286775400,-0.8066406,0.016601562,-0.12109375,241.3125,-30.28125,-56.78125,0.0,0.0,0.0
1696286775463,-0.8466797,0.2705078,-0.037109375,154.9375,-15.75,-55.9375,0.0,0.0,0.0
1696286775491,-0.7294922,0.51953125,0.12695312,95.375,10.25,-52.875,0.0,0.0,0.0
1696286775551,-0.7080078,0.25683594,0.13964844,69.9375,33.4375,-33.84375,0.0,0.0,0.0
1696286775577,-1.0302734,0.059570312,0.4326172,88.0625,39.34375,-18.375,0.0,0.0,0.0
1696286775644,-1.2265625,0.17675781,1.3349609,169.71875,-41.40625,5.78125,0.0,0.0,0.0
1696286775649,-1.0058594,-0.1328125,0.50390625,81.59375,-95.78125,-20.875,0.0,0.0,0.0
1696286775731,-0.43164062,-0.032226562,0.2578125,81.78125,-29.0,-52.9375,0.0,0.0,0.0
1696286775762,-0.8017578,-0.10839844,0.42285156,146.40625,1.21875,-44.75,0.0,0.0,0.0
1696286775764,-1.1787109,0.28027344,-0.6777344,-40.90625,54.1875,-58.59375,0.0,0.0,0.0
1696286775943,-1.7880859,0.025390625,0.4765625,194.0,-6.78125,-21.4375,0.0,0.0,0.0
1696286775945,-0.3515625,0.24707031,-0.13964844,-56.96875,-5.625,-21.0625,-71.875,-6.5625,-188.875
1696286775947,-0.75878906,-0.2109375,-0.091796875,-6.96875,26.78125,49.96875,0.0,0.0,0.0
1696286775948,-1.6757812,-0.6376953,-0.13867188,-12.84375,77.9375,7.6875,0.0,0.0,0.0
1696286775971,-1.1074219,0.07714844,0.48828125,-44.5625,25.125,-65.9375,0.0,0.0,0.0
1696286775999,-0.875,0.32226562,0.11621094,-26.5,54.0625,-60.625,0.0,0.0,0.0
1696286776064,-0.9248047,-0.03125,0.15429688,62.4375,45.75,-21.125,0.0,0.0,0.0
1696286776089,-0.9160156,-0.107421875,0.21484375,-1.0,32.34375,-11.90625,0.0,0.0,0.0
1696286776124,-0.9394531,-0.056640625,0.2841797,-31.5,30.5,-15.15625,0.0,0.0,0.0
1696286776186,-0.9560547,-0.17675781,0.15039062,-30.84375,19.6875,-4.71875,0.0,0.0,0.0
1696286776209,-0.921875,-0.08203125,0.3544922,-55.4375,10.125,-7.40625,0.0,0.0,0.0
1696286776242,-0.7285156,0.1015625,0.16992188,-59.34375,-11.4375,-7.40625,0.0,0.0,0.0
1696286776366,-0.54003906,0.07324219,0.16308594,-18.15625,-22.0,-5.09375,0.0,0.0,0.0
1696286776368,-0.80859375,-0.38085938,0.09082031,1.4375,-20.78125,-2.625,-76.625,-12.125,-190.6875
1696286776369,-0.9140625,-0.087890625,0.21484375,-62.625,-31.09375,-12.40625,0.0,0.0,0.0
1696286776420,-0.7480469,0.025390625,0.076171875,-111.96875,-14.59375,-12.59375,0.0,0.0,0.0
1696286776453,-0.91796875,-0.23535156,0.083984375,11.09375,-22.34375,15.96875,0.0,0.0,0.0
1696286776483,-0.90527344,-0.39257812,0.3828125,26.59375,-30.65625,14.875,0.0,0.0,0.0
1696286776571,-0.93359375,-0.27539062,0.50878906,57.65625,-68.9375,16.65625,0.0,0.0,0.0
1696286776572,-1.5654297,-0.045898438,0.49609375,89.46875,-134.90625,35.5625,0.0,0.0,0.0
1696286776598,-1.8339844,0.20117188,0.36035156,127.375,-151.03125,39.53125,0.0,0.0,0.0
1696286776661,-1.4042969,0.36523438,0.43359375,50.09375,-112.375,22.75,0.0,0.0,0.0
1696286776720,-1.0244141,0.125,0.28710938,-18.9375,-62.5625,12.75,0.0,0.0,0.0
1696286776723,-0.69433594,0.025390625,0.234375,-5.625,-20.65625,5.78125,0.0,0.0,0.0
1696286776782,-0.69628906,0.022460938,0.29101562,15.3125,33.0,-1.59375,0.0,0.0,0.0
1696286776811,-0.6308594,0.19921875,0.17773438,-10.28125,69.5625,-10.15625,0.0,0.0,0.0
1696286776839,-0.41796875,0.27148438,0.09082031,-47.5,87.3125,-13.625,-70.1875,-7.1875,-178.375
1696286776963,-0.48535156,-0.04296875,0.0068359375,-68.8125,109.375,-16.96875,0.0,0.0,0.0
1696286776969,-0.8183594,-0.35351562,0.16113281,83.34375,93.0625,-19.59375,0.0,0.0,0.0
1696286776971,-0.921875,-0.12597656,0.3408203,198.34375,98.96875,-47.1875,0.0,0.0,0.0
1696286777021,-0.85253906,0.55859375,1.1943359,-3.125,48.15625,-47.125,0.0,0.0,0.0
1696286777051,-0.6748047,0.25195312,0.24023438,-213.40625,0.09375,-19.25,0.0,0.0,0.0
1696286777081,-0.7294922,-0.0126953125,0.0146484375,-128.75,-3.75,-7.875,0.0,0.0,0.0
1696286777142,-1.2314453,0.1796875,1.0859375,156.71875,25.3125,18.0625,0.0,0.0,0.0
1696286777171,-2.0,-0.3955078,0.06640625,-273.875,37.40625,0.65625,0.0,0.0,0.0
1696286777199,-1.2460938,0.022460938,-0.40039062,-183.5,-28.46875,-38.40625,0.0,0.0,0.0
1696286777293,-1.6484375,0.0029296875,0.07421875,95.375,4.875,10.90625,0.0,0.0,0.0
1696286777297,-1.2597656,-0.06542969,0.31347656,-19.125,16.59375,0.34375,0.0,0.0,0.0
1696286777319,-1.21875,-0.16015625,-0.15234375,-5.03125,23.53125,9.125,-76.625,-16.4375,-184.5625
1696286777410,-1.0175781,0.046875,0.27148438,127.5,27.4375,13.71875,0.0,0.0,0.0
1696286777414,-0.7675781,-0.08203125,0.20996094,-3.625,24.875,10.71875,0.0,0.0,0.0
1696286777439,-0.69628906,-0.06640625,0.18652344,-5.09375,13.09375,14.15625,0.0,0.0,0.0
1696286777504,-0.65234375,0.037109375,0.35546875,4.5625,0.65625,22.625,0.0,0.0,0.0
1696286777529,-0.59765625,-0.16308594,0.18457031,-26.375,-14.65625,25.375,0.0,0.0,0.0
1696286777559,-0.4814453,0.013671875,0.1015625,-35.78125,-4.34375,16.84375,0.0,0.0,0.0
1696286777618,-1.0351562,-0.16308594,0.6689453,-32.78125,-41.65625,16.65625,0.0,0.0,0.0
1696286777655,-0.875,-0.07910156,0.12109375,-155.34375,-64.84375,-0.8125,0.0,0.0,0.0
1696286777680,-0.52441406,-0.0087890625,0.09863281,119.78125,-96.4375,24.28125,0.0,0.0,0.0
1696286777743,-0.96972656,-0.27734375,0.43164062,127.96875,-81.875,33.84375,0.0,0.0,0.0
1696286777861,-1.8955078,0.053710938,0.65527344,98.96875,-124.40625,22.03125,0.0,0.0,0.0
1696286777865,-1.8203125,0.3623047,0.5,147.03125,-165.40625,45.5625,0.0,0.0,0.0
1696286777867,-1.0615234,0.38476562,0.6142578,97.09375,-112.5625,54.78125,-70.0625,-8.0625,-179.125
1696286777889,-1.1142578,0.20019531,0.52734375,8.21875,-55.75,27.5,0.0,0.0,0.0
1696286777921,-0.75683594,0.14453125,0.37109375,33.25,-10.4375,-0.5,0.0,0.0,0.0
1696286778013,-0.703125,0.31152344,0.36914062,26.0,15.84375,-15.09375,0.0,0.0,0.0
1696286778015,-0.5527344,0.12011719,0.29003906,30.3125,35.8125,-25.09375,0.0,0.0,0.0
1696286778041,-0.47753906,0.22460938,0.19921875,14.375,54.0,-29.5,0.0,0.0,0.0
1696286778102,-0.46679688,0.2890625,0.17089844,-21.25,75.25,-37.125,0.0,0.0,0.0
1696286778129,-0.5576172,0.2265625,0.14746094,-60.6875,100.5625,-54.6875,0.0,0.0,0.0
1696286778162,-0.8964844,-0.091796875,0.17871094,-63.125,109.3125,-50.84375,0.0,0.0,0.0
1696286778311,-0.8066406,-0.103515625,0.234375,-21.8125,124.75,-69.15625,0.0,0.0,0.0
1696286778312,-0.82910156,0.06738281,0.36816406,53.03125,111.75,-45.5625,0.0,0.0,0.0
1696286778314,-0.8515625,0.31347656,1.1259766,42.59375,-4.84375,-27.0,0.0,0.0,0.0
1696286778344,-0.6435547,0.5839844,0.33203125,-190.03125,-18.03125,-18.03125,-79.625,-12.6875,-197.125
1696286778370,-0.8564453,0.3466797,0.19042969,-75.21875,-25.09375,15.71875,0.0,0.0,0.0
1696286778404,-1.9267578,-0.18359375,0.8232422,-2.59375,-56.53125,16.28125,0.0,0.0,0.0
1696286778463,-1.1416016,-0.4560547,0.35546875,-261.71875,-49.15625,-52.4375,0.0,0.0,0.0
1696286778522,-1.1152344,-0.08691406,0.001953125,-29.125,-1.0625,-17.09375,0.0,0.0,0.0
1696286778551,-1.3369141,-0.49121094,0.82910156,94.96875,-62.21875,11.15625,0.0,0.0,0.0
1696286778580,-0.9707031,-0.08886719,-0.12207031,-187.21875,20.96875,-18.5,0.0,0.0,0.0
1696286778639,-1.3583984,-0.16308594,-0.064453125,57.34375,47.09375,1.5,0.0,0.0,0.0
1696286778669,-1.1005859,-0.22363281,0.58691406,93.4375,46.96875,-7.9375,0.0,0.0,0.0
1696286778762,-0.796875,-0.19726562,0.0078125,-74.125,47.78125,-17.90625,0.0,0.0,0.0
1696286778764,-0.7050781,-0.032226562,0.07324219,102.15625,35.9375,7.25,0.0,0.0,0.0
1696286778766,-0.890625,-9.765625E-4,0.47265625,107.59375,27.28125,14.375,0.0,0.0,0.0
1696286778821,-0.73535156,0.064453125,0.4814453,-81.625,0.09375,-0.1875,0.0,0.0,0.0
1696286778850,-0.5253906,0.13476562,0.09082031,-26.8125,-35.78125,15.84375,-80.875,-14.0625,-192.625
1696286778883,-0.5126953,0.076171875,0.2548828,52.59375,-61.59375,30.0,0.0,0.0,0.0
1696286778941,-0.6972656,-0.26464844,0.00390625,-31.03125,-42.125,34.40625,0.0,0.0,0.0
1696286778972,-0.82910156,-0.59765625,0.27441406,26.09375,-56.03125,17.0625,0.0,0.0,0.0
1696286779032,-0.875,-0.08984375,0.34277344,41.1875,-96.625,16.21875,0.0,0.0,0.0
1696286779060,-1.3066406,0.09082031,0.7001953,120.71875,-142.59375,16.40625,0.0,0.0,0.0
1696286779095,-1.8095703,0.21875,0.58203125,62.0,-123.90625,11.8125,0.0,0.0,0.0
1696286779119,-1.3808594,0.28222656,0.5361328,8.65625,-85.15625,2.96875,0.0,0.0,0.0
1696286779212,-1.0712891,0.115234375,0.7158203,10.0,-53.65625,0.65625,0.0,0.0,0.0
1696286779215,-1.0273438,0.10058594,0.4951172,-6.78125,-18.3125,-9.90625,0.0,0.0,0.0
1696286779240,-0.953125,0.2578125,0.3388672,37.03125,20.84375,-14.1875,0.0,0.0,0.0
1696286779329,-0.76171875,0.4658203,0.3310547,26.84375,25.0625,1.375,0.0,0.0,0.0
1696286779358,-0.5595703,0.28515625,0.29296875,21.71875,39.40625,15.0625,-75.75,-8.375,-177.5
1696286779360,-0.57910156,0.080078125,0.23339844,20.8125,47.96875,19.46875,0.0,0.0,0.0
1696286779421,-0.6298828,-0.01953125,0.3671875,-8.3125,71.53125,-9.71875,0.0,0.0,0.0
1696286779456,-0.5800781,0.005859375,0.26660156,-5.9375,87.25,-34.6875,0.0,0.0,0.0
1696286779484,-0.68847656,-0.064453125,0.21875,29.46875,84.40625,-42.0,0.0,0.0,0.0
1696286779542,-0.7841797,0.18066406,0.50878906,90.375,93.3125,-41.75,0.0,0.0,0.0
1696286779601,-0.6953125,0.29101562,0.6484375,-17.46875,50.15625,-33.09375,0.0,0.0,0.0
1696286779629,-0.7441406,0.18457031,0.45898438,-102.0,28.96875,-22.46875,0.0,0.0,0.0
1696286779661,-0.6855469,0.103515625,0.29492188,-96.21875,19.40625,-15.09375,0.0,0.0,0.0
1696286779690,-1.0273438,0.47753906,0.6152344,46.5625,3.46875,17.5,0.0,0.0,0.0
1696286779722,-1.5166016,-0.5263672,-0.421875,-246.90625,-29.8125,15.0625,0.0,0.0,0.0
1696286779783,-1.1992188,-0.14355469,-0.18847656,-45.0,-27.96875,-12.34375,0.0,0.0,0.0
1696286779809,-2.0,-0.16308594,0.89453125,181.4375,1.75,8.34375,0.0,0.0,0.0
1696286779841,-0.93359375,-0.048828125,0.05078125,-131.84375,-8.3125,-24.125,-82.625,-14.0625,-187.5625
1696286779902,-1.2919922,-0.20996094,-0.35839844,11.71875,44.84375,-1.25,0.0,0.0,0.0
1696286779929,-1.2119141,0.06738281,0.4140625,139.4375,58.09375,-2.46875,0.0,0.0,0.0
1696286779961,-0.9248047,-0.052734375,0.18847656,-12.84375,54.25,-1.71875,0.0,0.0,0.0
1696286780022,-0.69433594,-0.07128906,0.13476562,74.375,55.78125,5.90625,0.0,0.0,0.0
1696286780051,-0.74609375,-0.0107421875,0.2685547,93.6875,41.0,17.5625,0.0,0.0,0.0
1696286780083,-0.75878906,-0.123046875,0.35253906,32.21875,34.84375,20.6875,0.0,0.0,0.0
1696286780141,-0.6640625,-0.01171875,0.16015625,21.96875,24.03125,20.75,0.0,0.0,0.0
1696286780171,-0.65234375,-0.3095703,0.18261719,35.6875,11.9375,28.1875,0.0,0.0,0.0
1696286780200,-0.9423828,-0.37597656,0.24511719,29.59375,23.3125,17.4375,0.0,0.0,0.0
1696286780265,-0.9550781,-0.2607422,0.21679688,66.03125,17.625,1.3125,0.0,0.0,0.0
1696286780290,-0.8310547,0.01171875,0.24707031,96.0625,1.375,12.625,0.0,0.0,0.0
1696286780320,-0.8251953,0.12597656,0.51171875,139.5,-13.3125,39.34375,-81.875,-14.0625,-203.3125
1696286780380,-1.7109375,-0.2861328,0.52441406,53.5,-83.5,45.09375,0.0,0.0,0.0
1696286780414,-1.6943359,0.083984375,0.15625,115.9375,-155.40625,-2.09375,0.0,0.0,0.0
1696286780440,-1.578125,-0.08886719,-0.15234375,57.65625,-124.34375,-22.71875,0.0,0.0,0.0
1696286780504,-1.8154297,0.19628906,0.4169922,-75.28125,-97.71875,-21.1875,0.0,0.0,0.0
1696286780530,-0.9765625,-0.025390625,-0.32421875,35.375,-55.375,-48.125,0.0,0.0,0.0
1696286780561,-0.87597656,-0.4580078,0.2607422,214.09375,-95.53125,-51.78125,0.0,0.0,0.0
1696286780650,-0.8232422,-0.051757812,-0.1484375,288.5625,-70.9375,-54.15625,0.0,0.0,0.0
1696286780651,-0.35742188,0.43164062,-0.08203125,227.84375,-25.15625,-49.5,0.0,0.0,0.0
1696286780679,-0.32714844,0.3876953,0.0146484375,157.53125,2.71875,-42.875,0.0,0.0,0.0
1696286780771,-0.78515625,0.059570312,0.2919922,167.40625,30.25,-44.875,0.0,0.0,0.0
1696286780773,-0.94140625,0.33203125,0.58203125,167.90625,27.875,-52.6875,0.0,0.0,0.0
1696286780801,-1.2441406,0.4951172,1.0859375,171.625,-49.625,3.90625,0.0,0.0,0.0
1696286780891,-0.9355469,0.3955078,0.22851562,71.875,-41.6875,-27.1875,-79.375,-20.5,-197.4375
1696286780919,-1.6123047,-0.0546875,0.70703125,143.125,-103.15625,-37.5625,0.0,0.0,0.0
1696286780921,-1.1484375,-0.0390625,-0.030273438,17.0,-13.875,-31.25,0.0,0.0,0.0
1696286780982,-0.5839844,-0.29589844,-0.12402344,39.09375,21.21875,3.53125,0.0,0.0,0.0
1696286781009,-1.5322266,-0.53808594,-0.30664062,5.71875,-52.25,23.96875,0.0,0.0,0.0
1696286781040,-1.3066406,-0.32910156,-0.19140625,28.5,138.03125,-105.65625,0.0,0.0,0.0
1696286781222,-0.9345703,0.68359375,0.36914062,-32.65625,114.65625,-104.25,0.0,0.0,0.0
1696286781251,-1.1416016,-0.07714844,0.18554688,218.4375,59.96875,-45.5,0.0,0.0,0.0
1696286781279,-0.8466797,-0.022460938,0.08203125,21.09375,64.4375,-49.28125,0.0,0.0,0.0
1696286781308,-0.8310547,0.09863281,0.064453125,-4.96875,54.5,-27.34375,0.0,0.0,0.0
1696286781310,-0.93652344,-0.16894531,0.10449219,87.09375,64.5625,-15.875,0.0,0.0,0.0
1696286781311,-1.0019531,-0.17285156,0.09472656,74.9375,45.875,-10.6875,0.0,0.0,0.0
1696286781342,-0.87402344,-0.15234375,0.21289062,0.40625,64.0625,-12.15625,-77.5625,-35.0625,-210.5
1696286781369,-0.96875,-0.20703125,0.09472656,21.21875,45.5625,-4.90625,0.0,0.0,0.0
1696286781404,-1.125,0.06542969,0.05078125,64.25,33.8125,10.84375,0.0,0.0,0.0
1696286781497,-1.5107422,-0.1484375,0.5625,116.8125,17.75,29.78125,0.0,0.0,0.0
1696286781501,-1.2607422,-0.42773438,-0.032226562,17.625,-100.40625,25.4375,0.0,0.0,0.0
1696286781521,-1.0224609,0.328125,-0.099609375,-22.78125,-151.375,14.75,0.0,0.0,0.0
1696286781614,-1.1416016,0.041992188,-0.16796875,66.6875,-143.875,33.90625,0.0,0.0,0.0
1696286781616,-1.5341797,-0.41992188,0.08691406,154.9375,-136.90625,34.71875,0.0,0.0,0.0
1696286781640,-1.1523438,-0.27441406,-0.29003906,92.15625,-79.375,8.34375,0.0,0.0,0.0
1696286781794,-0.9140625,-0.0625,-0.013671875,85.375,-76.375,-23.15625,0.0,0.0,0.0
1696286781795,-0.81347656,0.03125,0.041992188,102.40625,-135.8125,-18.4375,0.0,0.0,0.0
1696286781796,-0.5097656,0.26757812,-0.029296875,137.8125,-60.9375,-35.65625,0.0,0.0,0.0
1696286781819,-0.53222656,0.15136719,0.045898438,111.25,-15.03125,-42.8125,0.0,0.0,0.0
1696286781850,-0.6123047,0.18359375,0.21582031,75.1875,27.8125,-41.59375,-82.9375,-34.3125,-187.5625
1696286781880,-0.9189453,0.0,0.73339844,64.25,52.28125,-63.0625,0.0,0.0,0.0
1696286781944,-1.2753906,0.16015625,0.90625,132.5625,29.65625,-58.71875,0.0,0.0,0.0
1696286781970,-0.90722656,-0.03515625,0.40527344,60.90625,-30.40625,-38.46875,0.0,0.0,0.0
1696286782000,-1.2841797,0.48535156,-0.49316406,2.3125,-36.9375,-22.15625,0.0,0.0,0.0
1696286782265,-0.8876953,-0.17285156,-0.14257812,52.21875,47.96875,2.5625,0.0,0.0,0.0
1696286782268,-1.1630859,-0.21386719,-0.15332031,-80.65625,48.8125,6.5625,0.0,0.0,0.0
1696286782270,-1.1650391,-0.36132812,-0.2607422,39.71875,54.0,-24.5,0.0,0.0,0.0
1696286782272,-1.0957031,0.30859375,0.52246094,175.9375,-6.25,-27.65625,0.0,0.0,0.0
1696286782273,-1.0048828,-0.046875,0.18164062,-32.5,28.1875,-39.5,0.0,0.0,0.0
1696286782275,-0.9160156,-0.12988281,0.06347656,-6.3125,30.375,-23.875,0.0,0.0,0.0
1696286782300,-0.83984375,-0.14453125,0.19042969,49.71875,28.84375,-11.1875,0.0,0.0,0.0
1696286782332,-0.90234375,-0.09863281,0.22070312,23.84375,16.90625,-4.96875,0.0,0.0,0.0
1696286782361,-0.85058594,-0.0703125,0.22558594,-8.6875,13.09375,-3.75,-87.3125,-42.25,-192.375
1696286782419,-0.71777344,-0.047851562,0.32421875,-48.34375,-10.9375,-2.53125,0.0,0.0,0.0
1696286782448,-0.74609375,0.099609375,0.24316406,-22.28125,-15.09375,-7.59375,0.0,0.0,0.0
1696286782479,-0.68652344,-0.0087890625,0.13085938,-68.25,-20.03125,-2.40625,0.0,0.0,0.0
1696286782545,-0.79296875,-0.103515625,0.22753906,16.34375,-30.53125,11.59375,0.0,0.0,0.0
1696286782570,-0.8154297,-0.3828125,0.1875,-75.5625,-11.78125,-6.90625,0.0,0.0,0.0
1696286782602,-0.7763672,-0.22167969,0.041015625,-5.8125,-23.5625,0.65625,0.0,0.0,0.0
1696286782661,-0.88964844,-0.16210938,0.25976562,65.59375,-33.28125,9.5,0.0,0.0,0.0
1696286782692,-1.7705078,-0.3310547,0.58203125,59.5625,-83.28125,5.34375,0.0,0.0,0.0
1696286782722,-1.7041016,0.087890625,0.35351562,60.84375,-95.34375,-2.9375,0.0,0.0,0.0
1696286782784,-1.6357422,0.5839844,0.30859375,53.09375,-109.375,21.96875,0.0,0.0,0.0
1696286782810,-1.3691406,0.034179688,0.359375,60.53125,-135.15625,37.34375,0.0,0.0,0.0
1696286782845,-1.0410156,-0.13867188,0.32128906,26.21875,-73.0625,35.09375,-80.375,-37.1875,-170.625
1696286782937,-0.76171875,0.0703125,0.21289062,64.75,-15.875,7.8125,0.0,0.0,0.0
1696286782940,-0.71777344,0.28125,0.24121094,67.1875,5.78125,4.0,0.0,0.0,0.0
1696286782961,-0.5546875,0.29101562,0.115234375,22.4375,33.6875,-3.75,0.0,0.0,0.0
1696286783027,-0.46289062,0.17773438,0.15429688,-1.84375,56.375,-6.0625,0.0,0.0,0.0
1696286783051,-0.5878906,0.076171875,0.15136719,-20.09375,81.65625,-18.3125,0.0,0.0,0.0
1696286783082,-0.7832031,-0.043945312,0.20898438,-26.5625,99.53125,-46.53125,0.0,0.0,0.0
1696286783110,-0.91796875,-0.12109375,0.28808594,-25.65625,103.0625,-58.5,0.0,0.0,0.0
1696286783204,-0.8154297,0.024414062,0.65722656,58.28125,102.59375,-57.625,0.0,0.0,0.0
1696286783210,-0.6074219,0.40625,0.7441406,-70.28125,17.8125,-29.8125,0.0,0.0,0.0
1696286783230,-0.8300781,0.12011719,0.26171875,-186.21875,3.84375,-10.9375,0.0,0.0,0.0
1696286783293,-0.6894531,-0.037109375,9.765625E-4,-73.375,-12.28125,-16.125,0.0,0.0,0.0
1696286783321,-0.87402344,0.4609375,0.71972656,168.1875,37.21875,1.3125,0.0,0.0,0.0
1696286783384,-1.6835938,-0.59472656,0.24511719,-336.4375,-2.625,-1.78125,-84.125,-43.1875,-185.875
1696286783410,-1.3261719,-0.36132812,-0.1953125,-145.59375,-30.34375,-35.21875,0.0,0.0,0.0
1696286783442,-1.8037109,-0.13964844,0.107421875,61.15625,-34.1875,-10.21875,0.0,0.0,0.0
1696286783471,-1.0517578,-0.15429688,-0.16015625,-81.0,5.34375,-20.9375,0.0,0.0,0.0
1696286783595,-1.3076172,-0.22167969,-0.18066406,65.96875,37.03125,-1.34375,0.0,0.0,0.0
1696286783600,-1.1337891,0.051757812,0.41210938,108.375,38.625,-7.71875,0.0,0.0,0.0
1696286783602,-0.859375,0.0625,0.083984375,-16.6875,34.53125,9.03125,0.0,0.0,0.0
1696286783651,-0.75097656,-0.0390625,0.09082031,53.625,29.59375,26.09375,0.0,0.0,0.0
1696286783683,-0.84765625,-0.22363281,0.22363281,58.59375,24.65625,26.15625,0.0,0.0,0.0
1696286783773,-0.7216797,-0.22753906,0.3310547,-61.96875,25.75,10.71875,0.0,0.0,0.0
1696286783775,-0.54785156,-0.13476562,0.041015625,-50.75,23.3125,5.90625,0.0,0.0,0.0
1696286783803,-0.81152344,0.022460938,0.5917969,106.78125,13.40625,16.53125,0.0,0.0,0.0
1696286783861,-1.0566406,-0.25585938,0.42382812,-41.09375,-34.5625,14.625,-85.5,-43.3125,-193.6875
1696286783890,-0.7246094,-0.22363281,-0.020507812,-93.59375,-34.8125,-12.46875,0.0,0.0,0.0
1696286783921,-0.7949219,-0.14257812,0.0390625,68.84375,-22.34375,2.5625,0.0,0.0,0.0
1696286783952,-0.98339844,-0.0859375,0.3515625,124.8125,-27.34375,13.71875,0.0,0.0,0.0
1696286784013,-0.88964844,-0.123046875,0.39257812,39.59375,-46.15625,12.9375,0.0,0.0,0.0
1696286784039,-1.0449219,0.041992188,0.33007812,20.3125,-89.5,21.15625,0.0,0.0,0.0
1696286784075,-1.5830078,-0.19921875,0.46777344,129.9375,-137.15625,25.875,0.0,0.0,0.0
1696286784134,-1.6650391,0.13574219,0.42773438,145.75,-147.65625,20.84375,0.0,0.0,0.0
1696286784160,-0.9785156,0.25878906,0.20507812,32.46875,-131.5,27.75,0.0,0.0,0.0
1696286784195,-0.7060547,-0.09667969,0.5263672,-28.09375,-70.5625,-14.34375,0.0,0.0,0.0
1696286784254,-1.0595703,-0.056640625,0.421875,-13.125,-18.875,-28.875,0.0,0.0,0.0
1696286784280,-0.96777344,0.19140625,0.39648438,17.0625,16.90625,-48.90625,0.0,0.0,0.0
1696286784313,-0.6298828,0.29882812,0.3046875,11.9375,50.28125,-34.875,0.0,0.0,0.0
1696286784377,-0.71777344,0.1328125,0.3125,21.28125,70.1875,-6.0,-77.6875,-36.4375,-167.625
1696286784400,-0.7949219,0.12597656,0.25683594,-17.90625,95.875,-12.03125,0.0,0.0,0.0
1696286784429,-0.68359375,0.14746094,0.14257812,-40.84375,114.1875,-9.71875,0.0,0.0,0.0
1696286784493,-0.8017578,0.08691406,0.11425781,104.125,81.96875,15.3125,0.0,0.0,0.0
1696286784522,-0.84765625,0.059570312,0.43359375,103.375,109.59375,-18.625,0.0,0.0,0.0
1696286784550,-0.8486328,0.24414062,0.6640625,-1.40625,48.5,-24.84375,0.0,0.0,0.0
1696286784614,-0.7080078,0.16796875,0.5048828,-91.3125,7.75,-13.03125,0.0,0.0,0.0
1696286784639,-0.66308594,-0.0234375,0.111328125,-135.09375,4.5,-16.4375,0.0,0.0,0.0
1696286784673,-0.9707031,0.17480469,0.4716797,-68.3125,13.90625,1.5625,0.0,0.0,0.0
1696286784729,-1.3876953,-0.55566406,-0.13671875,-249.96875,-17.34375,3.34375,0.0,0.0,0.0
1696286784762,-1.0664062,-0.061523438,0.13964844,-175.84375,-37.3125,-35.40625,0.0,0.0,0.0
1696286784790,-1.9921875,-0.23730469,0.62597656,144.9375,-23.5,-4.21875,0.0,0.0,0.0
1696286784853,-1.0839844,-0.12890625,0.056640625,-99.3125,-3.90625,-29.125,-80.5625,-42.125,-186.625
1696286784879,-1.25,-0.18652344,-0.28320312,-51.78125,32.09375,-9.15625,0.0,0.0,0.0
1696286784910,-1.2236328,0.15136719,0.25195312,173.625,31.46875,20.6875,0.0,0.0,0.0
1696286784970,-0.94628906,-0.107421875,0.19726562,-13.1875,33.75,11.28125,0.0,0.0,0.0
1696286785003,-0.8222656,-0.12695312,0.083984375,22.3125,40.5,9.5,0.0,0.0,0.0
1696286785030,-0.8300781,-0.11621094,0.23730469,41.0,31.0,16.21875,0.0,0.0,0.0
1696286785152,-0.8486328,-0.16210938,0.33691406,-3.3125,27.75,14.875,0.0,0.0,0.0
1696286785158,-0.77734375,-0.10253906,0.3876953,-46.9375,8.09375,12.9375,0.0,0.0,0.0
1696286785161,-0.7050781,-0.047851562,0.45898438,15.90625,-9.53125,11.15625,0.0,0.0,0.0
1696286785213,-0.8330078,-0.2529297,0.17480469,-18.5,-18.15625,11.71875,0.0,0.0,0.0
1696286785242,-0.70214844,-0.16796875,0.10644531,49.0,-24.75,5.0625,0.0,0.0,0.0
1696286785270,-0.80566406,-0.140625,0.2998047,61.3125,-12.21875,1.875,0.0,0.0,0.0
1696286785334,-0.83203125,-0.064453125,0.20117188,-66.96875,-15.875,-11.71875,0.0,0.0,0.0
1696286785361,-0.7285156,0.12695312,0.29003906,-0.75,-32.90625,-2.9375,-83.25,-39.4375,-187.5625
1696286785391,-1.015625,-0.2607422,0.22753906,1.9375,-52.875,2.90625,0.0,0.0,0.0
1696286785485,-1.6933594,-0.4189453,0.53222656,56.875,-87.28125,-7.46875,0.0,0.0,0.0
1696286785489,-1.6884766,0.19140625,0.38476562,106.0,-116.59375,-1.65625,0.0,0.0,0.0
1696286785513,-1.6328125,0.39453125,0.34765625,48.25,-111.59375,10.46875,0.0,0.0,0.0
1696286785605,-1.1308594,0.16113281,0.4013672,25.6875,-102.125,26.28125,0.0,0.0,0.0
1696286785609,-0.99902344,-0.009765625,0.3564453,45.21875,-57.375,30.3125,0.0,0.0,0.0
1696286785630,-0.8310547,0.12695312,0.22167969,70.71875,-6.25,22.4375,0.0,0.0,0.0
1696286785693,-0.74121094,0.30371094,0.18066406,56.5,15.3125,16.40625,0.0,0.0,0.0
1696286785719,-0.5810547,0.22460938,0.17675781,37.09375,25.875,13.71875,0.0,0.0,0.0
1696286785750,-0.5683594,0.083984375,0.25683594,14.375,54.625,10.84375,0.0,0.0,0.0
1696286785813,-0.5966797,-0.14160156,0.15332031,-25.96875,69.4375,-20.9375,0.0,0.0,0.0
1696286785843,-0.79296875,0.03125,0.24511719,-98.71875,108.3125,-40.78125,-75.875,-25.625,-173.125
1696286785869,-0.9238281,0.01953125,0.33789062,-15.625,96.90625,-44.9375,0.0,0.0,0.0
1696286785961,-0.78515625,0.034179688,0.296875,38.625,83.3125,-44.6875,0.0,0.0,0.0
1696286785963,-0.7714844,0.26953125,0.8027344,26.59375,48.875,-30.46875,0.0,0.0,0.0
1696286785990,-0.7861328,0.125,0.45507812,-118.59375,26.90625,-17.03125,0.0,0.0,0.0
1696286786116,-0.6533203,0.17285156,0.25585938,-101.875,9.625,-8.6875,0.0,0.0,0.0
1696286786118,-0.9501953,0.2783203,0.41796875,8.46875,10.1875,17.0,0.0,0.0,0.0
1696286786122,-1.6210938,-0.17675781,0.09667969,-159.25,-20.875,16.34375,0.0,0.0,0.0
1696286786169,-1.1416016,-0.07910156,-0.37402344,-160.53125,-48.96875,-5.15625,0.0,0.0,0.0
1696286786212,-2.0,-0.15332031,0.90722656,146.53125,-24.78125,10.375,0.0,0.0,0.0
1696286786229,-0.9863281,-0.18164062,-0.0048828125,-170.0625,-18.03125,-23.75,0.0,0.0,0.0
1696286786295,-1.1982422,-0.32128906,-0.4013672,19.21875,27.34375,3.21875,0.0,0.0,0.0
1696286786352,-1.328125,0.09765625,0.6357422,164.71875,42.65625,-4.40625,0.0,0.0,0.0
1696286786380,-0.8876953,-0.055664062,0.017578125,-64.53125,38.8125,4.0,-78.3125,-40.4375,-182.0
1696286786412,-0.7753906,-0.07910156,0.12890625,87.5,31.34375,12.1875,0.0,0.0,0.0
1696286786440,-0.8359375,-0.14257812,0.30859375,18.40625,38.4375,14.875,0.0,0.0,0.0
1696286786472,-0.8154297,-0.21386719,0.22363281,-13.4375,29.84375,14.8125,0.0,0.0,0.0
1696286786533,-0.7314453,-0.111328125,0.31640625,1.3125,22.25,9.375,0.0,0.0,0.0
1696286786559,-0.7128906,-0.35253906,0.16699219,15.71875,16.15625,7.125,0.0,0.0,0.0
1696286786591,-0.6591797,-0.36035156,0.19042969,46.0625,27.6875,-0.125,0.0,0.0,0.0
1696286786657,-1.0322266,-0.30859375,0.24316406,55.15625,17.875,-3.6875,0.0,0.0,0.0
1696286786679,-0.79589844,-0.0146484375,0.024414062,130.46875,-11.84375,14.9375,0.0,0.0,0.0
1696286786713,-0.86035156,-0.09472656,0.19824219,187.71875,1.21875,19.21875,0.0,0.0,0.0
1696286786771,-0.8642578,-0.06542969,0.24707031,91.34375,19.34375,14.09375,0.0,0.0,0.0
1696286786800,-1.2783203,-0.109375,0.6357422,168.0625,-3.75,18.78125,0.0,0.0,0.0
1696286786832,-1.8320312,-0.22363281,0.48242188,62.25,-73.1875,11.40625,-78.125,-32.375,-183.1875
1696286786981,-1.7207031,-0.0859375,0.03515625,133.40625,-140.34375,-3.8125,0.0,0.0,0.0
1696286786983,-1.3769531,0.10644531,-0.048828125,59.625,-95.0,-3.75,0.0,0.0,0.0
1696286786987,-1.4394531,0.0078125,0.36523438,-53.40625,-76.25,0.65625,0.0,0.0,0.0
1696286787009,-1.1308594,-0.1484375,-0.18066406,-76.84375,-59.28125,-15.46875,0.0,0.0,0.0
1696286787040,-0.7841797,0.044921875,-0.46289062,229.84375,-42.8125,-10.4375,0.0,0.0,0.0
1696286787071,-0.89941406,-0.21875,0.19824219,235.09375,-82.53125,-28.28125,0.0,0.0,0.0
1696286787133,-0.4736328,0.31152344,-0.06933594,192.375,-9.96875,-55.0625,0.0,0.0,0.0
1696286787162,-0.44140625,0.41503906,0.08984375,112.59375,17.875,-23.21875,0.0,0.0,0.0
1696286787189,-0.7890625,0.08984375,0.36328125,101.0,47.53125,-30.90625,0.0,0.0,0.0
1696286787254,-1.3017578,0.2529297,0.8486328,123.6875,35.3125,-30.40625,0.0,0.0,0.0
1696286787280,-1.0087891,0.22070312,0.9003906,122.78125,-75.5625,5.34375,0.0,0.0,0.0
1696286787311,-0.7011719,0.36621094,0.4296875,51.75,-22.28125,-24.0625,0.0,0.0,0.0
1696286787374,-1.5214844,-0.21289062,-0.25195312,-5.75,43.6875,-72.65625,-72.875,-19.4375,-168.1875
1696286787399,-0.8720703,-0.059570312,-0.10546875,39.34375,-3.75,-29.125,0.0,0.0,0.0
1696286787436,-0.7480469,0.01953125,-0.083984375,-23.6875,10.78125,33.625,0.0,0.0,0.0
1696286787525,-1.7099609,-0.38867188,-0.33496094,49.1875,3.90625,40.375,0.0,0.0,0.0
1696286787528,-1.1318359,-0.30078125,-0.048828125,91.28125,80.5625,-68.0,0.0,0.0,0.0
1696286787553,-0.9316406,0.4609375,0.4638672,26.78125,130.96875,-98.53125,0.0,0.0,0.0
1696286787614,-1.0253906,-0.07128906,0.28027344,78.0,46.0625,-25.40625,0.0,0.0,0.0
1696286787641,-0.8222656,-0.09863281,0.0087890625,-37.625,53.9375,-38.71875,0.0,0.0,0.0
1696286787670,-0.9394531,0.005859375,0.095703125,30.625,59.5,-24.25,0.0,0.0,0.0
1696286787732,-1.0625,-0.25195312,0.140625,87.375,49.78125,-6.53125,0.0,0.0,0.0
1696286787761,-0.9316406,-0.25195312,-0.022460938,21.03125,42.90625,-14.71875,0.0,0.0,0.0
1696286787790,-0.9609375,-0.11425781,0.044921875,32.09375,46.90625,-8.375,0.0,0.0,0.0
1696286787918,-1.0224609,-0.060546875,-0.021484375,45.21875,45.09375,1.3125,-85.8125,-22.9375,-184.375
1696286787922,-1.0302734,0.055664062,0.14648438,116.5,54.125,11.15625,0.0,0.0,0.0
1696286787925,-1.1054688,-0.044921875,0.3798828,52.0625,9.25,21.96875,0.0,0.0,0.0
1696286788031,-1.2070312,-0.049804688,-0.22265625,-91.15625,-15.15625,4.75,0.0,0.0,0.0
1696286788032,-1.2958984,-0.37109375,0.171875,61.15625,-8.9375,17.875,0.0,0.0,0.0
1696286788035,-1.2431641,-0.61035156,0.16894531,58.15625,-71.0,12.75,0.0,0.0,0.0
1696286788089,-1.1416016,0.16503906,0.03515625,47.90625,-147.0625,19.21875,0.0,0.0,0.0
1696286788120,-0.82910156,0.30371094,-0.23242188,64.75,-117.09375,22.3125,0.0,0.0,0.0
1696286788151,-1.1660156,-0.39746094,0.15136719,25.8125,-108.96875,18.53125,0.0,0.0,0.0
1696286788210,-0.98046875,-0.59277344,-0.27539062,130.125,-130.3125,-11.84375,0.0,0.0,0.0
1696286788242,-0.89746094,-0.072265625,0.056640625,154.84375,-66.53125,-24.90625,0.0,0.0,0.0
1696286788272,-1.0488281,-0.20996094,0.091796875,159.65625,-49.8125,-47.6875,0.0,0.0,0.0
1696286788425,-0.8984375,0.0625,-0.06738281,166.65625,-56.21875,-66.46875,0.0,0.0,0.0
1696286788427,-0.8310547,0.05859375,-0.048828125,155.375,-27.40625,-67.46875,-79.5,-7.9375,-171.5
1696286788428,-0.8222656,0.30664062,0.1640625,93.375,-5.4375,-44.15625,0.0,0.0,0.0
1696286788452,-0.93652344,0.27929688,0.23242188,87.6875,18.90625,-35.34375,0.0,0.0,0.0
1696286788478,-1.0371094,-0.013671875,0.33203125,93.0625,7.8125,-23.5,0.0,0.0,0.0
1696286788509,-0.7236328,0.359375,0.52734375,113.5625,-33.84375,-20.46875,0.0,0.0,0.0
1696286788574,-0.8964844,0.07128906,0.83496094,79.15625,-24.96875,-17.78125,0.0,0.0,0.0
1696286788599,-0.8935547,-0.5361328,0.2861328,62.96875,-25.53125,-35.90625,0.0,0.0,0.0
1696286788634,-0.765625,-0.24023438,0.4140625,79.8125,-6.5,-64.15625,0.0,0.0,0.0
1696286788693,-0.8310547,-0.11035156,0.421875,94.46875,22.375,-66.78125,0.0,0.0,0.0
1696286788722,-1.9082031,0.41015625,-0.328125,-83.03125,80.4375,-67.8125,0.0,0.0,0.0
1696286788751,-0.7636719,0.4140625,-0.3955078,86.15625,-64.03125,-21.1875,0.0,0.0,0.0
1696286788812,-0.36816406,0.5205078,0.028320312,-20.59375,21.09375,28.625,0.0,0.0,0.0
1696286788845,-1.2412109,-0.18359375,-0.08203125,4.1875,26.84375,73.71875,-86.875,-7.3125,-181.5625
1696286788867,-1.6162109,-0.9082031,0.5761719,50.15625,71.28125,11.8125,0.0,0.0,0.0
1696286788932,-0.9658203,-0.009765625,0.01953125,-61.84375,37.09375,-39.125,0.0,0.0,0.0
1696286788961,-0.8857422,0.072265625,0.083984375,53.375,40.6875,-27.0,0.0,0.0,0.0
1696286788987,-0.9003906,-0.041992188,0.17089844,49.0,36.65625,-10.28125,0.0,0.0,0.0
1696286789054,-0.9667969,-0.06542969,0.19433594,5.46875,24.9375,-9.40625,0.0,0.0,0.0
1696286789078,-0.92285156,-0.028320312,0.2734375,-7.59375,13.90625,-5.75,0.0,0.0,0.0
1696286789108,-0.8652344,0.021484375,0.3154297,-35.65625,18.84375,-1.59375,0.0,0.0,0.0
1696286789171,-0.81933594,0.020507812,0.27148438,-78.03125,-7.21875,5.65625,0.0,0.0,0.0
1696286789201,-0.6533203,-0.055664062,0.17480469,3.15625,-18.6875,17.1875,0.0,0.0,0.0
1696286789233,-0.71484375,-0.076171875,0.053710938,10.40625,-42.0,14.8125,0.0,0.0,0.0
1696286789295,-0.828125,-0.09667969,0.32617188,54.1875,-31.4375,11.71875,0.0,0.0,0.0
1696286789318,-1.0830078,-0.12011719,0.28222656,-42.8125,-21.25,1.375,0.0,0.0,0.0
1696286789353,-0.8574219,-0.015625,0.11425781,-56.78125,-30.71875,0.65625,-84.875,-6.6875,-182.4375
1696286789438,-0.7578125,0.08203125,0.20800781,19.15625,-37.96875,7.25,0.0,0.0,0.0
1696286789439,-0.9033203,-0.14941406,0.51660156,39.0,-57.8125,17.4375,0.0,0.0,0.0
1696286789467,-1.2158203,-0.09277344,0.6201172,53.09375,-108.53125,23.25,0.0,0.0,0.0
1696286789527,-1.6923828,-0.16308594,0.45410156,69.4375,-147.65625,31.40625,0.0,0.0,0.0
1696286789557,-1.4609375,0.22167969,0.43652344,58.9375,-125.4375,29.09375,0.0,0.0,0.0
1696286789587,-0.88964844,0.4326172,0.5019531,1.5625,-86.75,5.0625,0.0,0.0,0.0
1696286789648,-0.9277344,-0.018554688,0.6015625,1.28125,-44.9375,14.21875,0.0,0.0,0.0
1696286789677,-1.0351562,0.05078125,0.4814453,50.46875,-8.375,-4.15625,0.0,0.0,0.0
1696286789708,-0.7558594,0.2578125,0.36132812,70.59375,20.6875,-17.09375,0.0,0.0,0.0
1696286789767,-0.6064453,0.3544922,0.26757812,40.5,34.78125,-19.1875,0.0,0.0,0.0
1696286789797,-0.5439453,0.25585938,0.2626953,7.125,46.75,-17.53125,0.0,0.0,0.0
1696286789827,-0.53808594,0.140625,0.2529297,-36.8125,67.0625,-24.6875,-71.875,3.0625,-171.375
1696286789889,-0.5371094,0.140625,0.18945312,-54.6875,86.03125,-31.25,0.0,0.0,0.0
1696286789918,-0.6982422,-0.025390625,0.15820312,8.28125,95.5625,-38.71875,0.0,0.0,0.0
1696286789949,-0.8466797,-0.17089844,0.3642578,59.0,99.65625,-56.84375,0.0,0.0,0.0
1696286790008,-0.89160156,0.034179688,0.47460938,44.25,93.90625,-62.46875,0.0,0.0,0.0
1696286790037,-0.8613281,0.5029297,0.7685547,-3.625,36.4375,-33.15625,0.0,0.0,0.0
1696286790068,-0.81933594,0.2939453,0.34277344,-132.46875,17.125,-15.75,0.0,0.0,0.0
1696286790127,-0.7753906,0.14550781,0.22265625,-25.21875,-18.15625,2.0,0.0,0.0,0.0
1696286790157,-1.4912109,0.56347656,1.2802734,17.5,-18.15625,28.65625,0.0,0.0,0.0
1696286790187,-1.6494141,-0.5576172,-0.9013672,-551.71875,-27.25,-8.5,0.0,0.0,0.0
1696286790248,-1.1416016,-0.15429688,-0.3251953,-17.34375,-51.71875,-14.84375,0.0,0.0,0.0
1696286790279,-2.0,-0.0625,0.55078125,328.71875,-3.0625,32.5625,0.0,0.0,0.0
1696286790311,-1.0273438,-0.22558594,0.1015625,-118.1875,15.5,-16.3125,0.0,0.0,0.0
1696286790369,-1.2783203,-0.08984375,-0.049804688,15.71875,39.0,-13.5625,-78.125,-13.1875,-174.5
1696286790400,-1.0253906,0.09863281,0.20800781,22.25,41.3125,-7.875,0.0,0.0,0.0
1696286790428,-0.8105469,-0.09375,0.140625,37.15625,38.1875,6.5625,0.0,0.0,0.0
1696286790490,-0.8105469,-0.09082031,0.3046875,60.90625,32.75,10.375,0.0,0.0,0.0
1696286790518,-0.8564453,-0.11328125,0.3388672,-25.78125,27.21875,13.40625,0.0,0.0,0.0
1696286790548,-0.85058594,-0.21777344,0.34765625,-60.5,23.375,7.375,0.0,0.0,0.0
1696286790637,-0.88183594,-0.1171875,0.32128906,-11.4375,6.875,9.8125,0.0,0.0,0.0
1696286790638,-0.89941406,-0.15820312,0.2939453,15.5,1.875,7.0,0.0,0.0,0.0
1696286790666,-0.8671875,-0.2421875,0.23730469,-26.1875,-10.6875,-4.15625,0.0,0.0,0.0
1696286790729,-0.72558594,0.01171875,0.059570312,25.375,-13.1875,2.96875,0.0,0.0,0.0
1696286790757,-0.79785156,-0.23535156,0.28222656,52.40625,-20.03125,6.46875,0.0,0.0,0.0
1696286790787,-0.8027344,0.17773438,0.32617188,-37.96875,-16.1875,-1.46875,0.0,0.0,0.0
1696286790848,-0.81640625,-0.234375,0.25390625,-95.09375,-26.4375,-8.5,-77.6875,-12.125,-179.75
1696286790880,-0.75097656,-0.16796875,0.07519531,36.0625,-45.25,8.21875,0.0,0.0,0.0
1696286790906,-0.8496094,-0.25683594,0.49023438,104.15625,-81.8125,26.28125,0.0,0.0,0.0
1696286790966,-1.5419922,-0.37402344,0.70214844,103.375,-100.1875,8.15625,0.0,0.0,0.0
1696286790997,-1.5341797,0.17773438,0.36132812,4.9375,-89.625,-18.15625,0.0,0.0,0.0
1696286791028,-1.5537109,0.55371094,0.47070312,24.875,-101.9375,13.40625,0.0,0.0,0.0
1696286791088,-1.1943359,0.17578125,0.4267578,-7.34375,-85.65625,4.6875,0.0,0.0,0.0
1696286791117,-0.87597656,0.046875,0.4375,31.0625,-23.625,2.0,0.0,0.0,0.0
1696286791147,-0.92285156,0.10546875,0.34277344,37.8125,17.75,15.3125,0.0,0.0,0.0
1696286791178,-0.6464844,0.17382812,0.14355469,39.28125,43.375,15.625,0.0,0.0,0.0
1696286791268,-0.48828125,0.3046875,0.13183594,30.625,45.21875,21.40625,0.0,0.0,0.0
1696286791269,-0.5996094,0.038085938,0.20410156,14.625,78.59375,-3.375,0.0,0.0,0.0
1696286791299,-0.7402344,-0.15625,0.3388672,15.1875,86.59375,-27.0,0.0,0.0,0.0
1696286791363,-0.84375,-0.08886719,0.39257812,21.40625,77.5,-33.09375,-71.25,-7.4375,-181.125
1696286791390,-0.64453125,0.23535156,0.4716797,29.09375,72.0625,-32.1875,0.0,0.0,0.0
1696286791417,-0.9511719,0.11035156,0.4970703,-58.71875,25.4375,-18.25,0.0,0.0,0.0
1696286791478,-0.7841797,0.18457031,0.29785156,-78.125,29.59375,-29.3125,0.0,0.0,0.0
1696286791508,-0.66503906,0.30371094,0.484375,-22.15625,24.21875,-7.9375,0.0,0.0,0.0
1696286791538,-0.7636719,0.34765625,0.58496094,-48.53125,-13.375,16.40625,0.0,0.0,0.0
1696286791600,-1.6132812,-0.2705078,-0.22265625,-88.40625,-31.15625,35.75,0.0,0.0,0.0
1696286791633,-1.3388672,-0.15429688,0.16601562,-70.875,-9.34375,-4.03125,0.0,0.0,0.0
1696286791659,-2.0,-0.32226562,2.0,82.4375,-52.875,-0.3125,0.0,0.0,0.0
1696286791723,-0.93359375,0.07421875,-0.35058594,-186.46875,-32.3125,-28.59375,0.0,0.0,0.0
1696286791751,-1.140625,-0.07910156,-0.4033203,80.3125,25.75,8.15625,0.0,0.0,0.0
1696286791781,-1.34375,-0.049804688,1.1347656,213.0625,29.21875,-3.8125,0.0,0.0,0.0
1696286791844,-0.9824219,-0.107421875,-0.04296875,-185.0625,48.3125,-15.875,-73.5,-15.25,-180.8125
1696286791871,-0.85058594,-0.17773438,0.11230469,82.3125,42.40625,11.28125,0.0,0.0,0.0
1696286791900,-0.7578125,0.028320312,0.40234375,70.78125,25.5,15.96875,0.0,0.0,0.0
1696286791963,-0.7607422,-0.1171875,0.26953125,0.90625,12.75,17.5625,0.0,0.0,0.0
1696286791990,-0.671875,-0.030273438,0.28808594,17.0,-1.59375,15.0625,0.0,0.0,0.0
1696286792022,-0.6591797,-0.01953125,0.1484375,0.71875,-16.375,23.25,0.0,0.0,0.0
1696286792082,-0.76953125,-0.1640625,0.17382812,19.46875,-12.28125,24.40625,0.0,0.0,0.0
1696286792109,-0.86328125,-0.15625,0.5097656,-39.8125,-28.9375,11.9375,0.0,0.0,0.0
1696286792140,-0.7792969,-0.047851562,-0.013671875,-72.71875,-28.8125,11.15625,0.0,0.0,0.0
1696286792204,-0.60253906,0.080078125,0.29785156,83.90625,-55.6875,23.0,0.0,0.0,0.0
1696286792229,-1.1826172,-0.19726562,0.5966797,96.71875,-73.25,25.0625,0.0,0.0,0.0
1696286792263,-1.7851562,-0.078125,0.6308594,-10.875,-89.375,6.6875,0.0,0.0,0.0
1696286792321,-1.7529297,0.16015625,0.6220703,48.6875,-103.28125,3.46875,0.0,0.0,0.0
1696286792350,-1.2607422,0.32128906,0.42871094,5.84375,-78.6875,7.6875,-69.0,-9.4375,-178.5625
1696286792386,-1.1181641,0.03515625,0.5361328,71.625,-57.375,12.5,0.0,0.0,0.0
1696286792440,-0.9111328,0.13476562,0.21484375,22.375,-14.0,-10.5,0.0,0.0,0.0
1696286792471,-0.68847656,0.24414062,0.23046875,59.125,3.53125,-15.46875,0.0,0.0,0.0
1696286792499,-0.62402344,0.18652344,0.22167969,59.375,20.4375,-7.34375,0.0,0.0,0.0
1696286792559,-0.44335938,0.20605469,0.17773438,17.1875,39.53125,-13.6875,0.0,0.0,0.0
1696286792590,-0.4345703,0.17773438,0.10253906,-11.375,67.1875,-21.9375,0.0,0.0,0.0
1696286792621,-0.6777344,0.0234375,0.017578125,-22.34375,106.25,-39.875,0.0,0.0,0.0
1696286792709,-0.84765625,-0.115234375,0.17578125,2.1875,103.6875,-58.125,0.0,0.0,0.0
1696286792711,-0.75097656,-9.765625E-4,0.21777344,72.6875,89.09375,-58.59375,0.0,0.0,0.0
1696286792739,-0.79589844,0.17382812,0.6542969,98.96875,147.875,-58.84375,0.0,0.0,0.0
1696286792799,-0.8125,0.6669922,0.79785156,-53.0,-11.90625,-17.15625,0.0,0.0,0.0
1696286792830,-0.58984375,0.3310547,0.1328125,-91.1875,-28.40625,9.8125,-76.375,-15.6875,-193.5625
1696286792888,-0.984375,0.37890625,0.42382812,31.96875,-18.75,38.0625,0.0,0.0,0.0
1696286792917,-2.0,-0.5253906,0.1484375,-352.5,-25.09375,6.5625,0.0,0.0,0.0
1696286792948,-1.5585938,-0.15625,-0.15332031,-193.875,-18.15625,-42.875,0.0,0.0,0.0
1696286792979,-1.9316406,-0.3173828,0.06542969,117.59375,5.59375,6.9375,0.0,0.0,0.0
1696286793039,-1.2490234,-0.09863281,0.0859375,24.21875,13.84375,-1.90625,0.0,0.0,0.0
1696286793069,-1.2167969,-0.11328125,-0.049804688,65.0625,32.40625,-0.5,0.0,0.0,0.0
1696286793102,-1.0039062,0.23535156,0.30371094,152.09375,37.15625,8.34375,0.0,0.0,0.0
1696286793162,-0.7919922,-0.20410156,0.16894531,39.28125,38.6875,12.0625,0.0,0.0,0.0
1696286793188,-0.7451172,-0.09765625,0.22167969,26.40625,48.1875,5.21875,0.0,0.0,0.0
1696286793219,-0.75683594,-0.06640625,0.25878906,15.625,38.125,15.5,0.0,0.0,0.0
1696286793281,-0.6875,-0.0859375,0.27539062,22.5625,28.5,22.625,0.0,0.0,0.0
1696286793313,-0.6582031,-0.11425781,0.19335938,6.28125,20.90625,24.59375,0.0,0.0,0.0
1696286793340,-0.6923828,-0.20410156,0.24023438,14.875,14.21875,26.09375,-77.25,-14.375,-195.8125
1696286793429,-0.6298828,-0.36621094,-0.01171875,28.1875,19.46875,20.5,0.0,0.0,0.0
1696286793431,-1.0527344,-0.3359375,0.5107422,113.28125,12.25,11.15625,0.0,0.0,0.0
1696286793461,-0.8984375,0.103515625,0.2763672,146.71875,-6.65625,16.53125,0.0,0.0,0.0
1696286793521,-0.78515625,-0.30566406,0.34375,168.25,3.21875,30.6875,0.0,0.0,0.0
1696286793548,-1.7167969,-0.19140625,0.81933594,117.0625,-88.5625,29.90625,0.0,0.0,0.0
1696286793582,-1.8583984,-0.0546875,-0.061523438,175.21875,-154.375,-0.5,0.0,0.0,0.0
1696286793641,-1.4101562,0.35058594,-0.11035156,19.9375,-110.1875,-20.15625,0.0,0.0,0.0
1696286793673,-1.7851562,0.09667969,0.22949219,-54.8125,-99.6875,-8.0625,0.0,0.0,0.0
1696286793703,-1.453125,-0.18066406,-0.028320312,-11.3125,-70.21875,-31.75,0.0,0.0,0.0
1696286793764,-1.0488281,0.07421875,-0.37402344,106.25,-3.3125,-53.78125,0.0,0.0,0.0
1696286793795,-0.8173828,-0.22167969,0.2578125,199.09375,-60.3125,-77.03125,0.0,0.0,0.0
1696286793821,-0.6171875,0.18457031,-0.005859375,180.21875,-31.25,-43.59375,-77.125,-14.6875,-189.0625
1696286793945,-0.6386719,0.08886719,0.07519531,221.1875,-18.75,-41.75,0.0,0.0,0.0
1696286793968,-0.67578125,0.15527344,0.15332031,130.40625,5.90625,-51.40625,0.0,0.0,0.0
1696286793999,-0.7324219,0.22949219,0.36914062,121.5,9.9375,-42.1875,0.0,0.0,0.0
1696286794040,-0.7910156,0.2265625,0.57714844,126.875,4.875,-36.15625,0.0,0.0,0.0
1696286794042,-1.1699219,-0.01953125,0.9375,123.15625,-36.875,-25.84375,0.0,0.0,0.0
1696286794059,-0.7861328,-0.17089844,0.5605469,93.5625,-53.0625,-46.34375,0.0,0.0,0.0
1696286794121,-0.8251953,-0.036132812,0.48339844,129.375,-5.5625,-70.375,0.0,0.0,0.0
1696286794150,-1.6933594,-0.47265625,0.24707031,36.90625,-12.21875,-64.84375,0.0,0.0,0.0
1696286794215,-0.96484375,0.984375,-0.111328125,44.96875,-14.40625,-40.3125,0.0,0.0,0.0
1696286794239,-0.55371094,0.14453125,0.044921875,38.8125,56.6875,16.15625,0.0,0.0,0.0
1696286794270,-1.3046875,-0.23632812,-0.24609375,-54.46875,8.53125,56.0625,0.0,0.0,0.0
1696286794301,-1.7822266,-0.8183594,0.35742188,94.21875,69.3125,-15.8125,0.0,0.0,0.0
1696286794364,-0.99121094,-0.021484375,0.14550781,77.625,52.71875,-71.96875,-82.1875,-26.9375,-200.3125
1696286794389,-0.95703125,0.16699219,-0.0234375,4.0,105.75,-67.65625,0.0,0.0,0.0
1696286794424,-0.9267578,-0.15332031,0.0048828125,123.21875,49.84375,-31.21875,0.0,0.0,0.0
1696286794483,-0.9716797,-0.1171875,0.12011719,128.21875,68.09375,-41.875,0.0,0.0,0.0
1696286794509,-0.95703125,0.140625,0.34277344,105.28125,73.34375,-43.96875,0.0,0.0,0.0
1696286794540,-0.8613281,-0.016601562,0.11425781,8.15625,34.46875,-22.53125,0.0,0.0,0.0
1696286794598,-0.8769531,-0.09667969,-0.005859375,-47.75,45.53125,-7.53125,0.0,0.0,0.0
1696286794629,-0.8671875,-0.30078125,0.034179688,2.65625,65.15625,1.75,0.0,0.0,0.0
1696286794659,-1.0400391,-0.26367188,-0.024414062,25.3125,55.28125,7.125,0.0,0.0,0.0
1696286794719,-1.0576172,0.00390625,0.048828125,77.5,48.625,12.0625,0.0,0.0,0.0
1696286794781,-1.1181641,-0.19042969,0.22949219,78.21875,36.0625,8.21875,0.0,0.0,0.0
1696286794784,-1.2695312,-0.23632812,-0.09667969,54.625,-17.65625,19.875,0.0,0.0,0.0
1696286794839,-1.6679688,-0.48828125,0.3564453,208.3125,-21.4375,33.5625,-77.5625,-35.8125,-215.4375
1696286794873,-1.3964844,-0.16015625,0.44921875,105.09375,-167.5,27.375,0.0,0.0,0.0
1696286794901,-1.0644531,0.42089844,-0.37109375,-54.875,-150.59375,23.1875,0.0,0.0,0.0
1696286794960,-1.3076172,0.11816406,-0.10449219,38.75,-133.0,29.9375,0.0,0.0,0.0
1696286794990,-1.4414062,-0.64453125,-0.49316406,28.625,-142.65625,39.34375,0.0,0.0,0.0
1696286795019,-1.0849609,-0.20605469,-0.09472656,185.90625,-115.875,27.375,0.0,0.0,0.0
1696286795081,-1.0166016,-0.19824219,-0.16796875,130.96875,-119.15625,-29.625,0.0,0.0,0.0
1696286795109,-0.66308594,0.3798828,0.041992188,102.46875,-82.78125,-51.71875,0.0,0.0,0.0
1696286795170,-0.31445312,0.4580078,-0.13867188,55.46875,-1.125,-62.40625,0.0,0.0,0.0
1696286795198,-0.46484375,0.21582031,0.045898438,36.78125,40.875,-29.25,0.0,0.0,0.0
1696286795230,-0.5751953,0.06933594,0.17871094,3.90625,51.9375,-23.4375,0.0,0.0,0.0
1696286795270,-0.38183594,0.076171875,0.10546875,74.5,-2.03125,-17.03125,0.0,0.0,0.0
1696286795321,-0.51660156,-0.056640625,0.23925781,164.09375,49.71875,-32.65625,0.0,0.0,0.0
1696286795350,-1.0263672,-0.08691406,0.64453125,117.28125,7.0,-24.78125,-80.375,-36.125,-184.375
1696286795379,-1.0117188,0.10546875,0.41308594,24.09375,41.0625,-65.375,0.0,0.0,0.0
1696286795444,-0.95703125,0.45996094,0.38671875,-108.78125,-1.46875,-37.5,0.0,0.0,0.0
1696286795470,-1.4619141,0.14453125,0.7529297,-11.6875,-16.625,-7.8125,0.0,0.0,0.0
1696286795562,-1.8652344,-0.25878906,-0.5107422,-429.40625,-6.25,-23.6875,0.0,0.0,0.0
1696286795563,-1.1396484,-0.5957031,-0.5419922,-32.96875,-30.34375,-35.15625,0.0,0.0,0.0
1696286795620,-2.0,0.05859375,0.6933594,250.21875,-14.3125,9.5625,0.0,0.0,0.0
1696286795621,-1.0058594,-0.0078125,0.14648438,-136.3125,26.03125,-45.0,0.0,0.0,0.0
1696286795710,-1.0605469,-0.20800781,-0.2783203,51.75,38.875,2.0,0.0,0.0,0.0
1696286795711,-1.015625,0.0625,0.56640625,146.21875,47.21875,16.28125,0.0,0.0,0.0
1696286795739,-0.7470703,0.068359375,0.3203125,-18.6875,27.375,12.875,0.0,0.0,0.0
1696286795801,-0.46679688,-0.025390625,0.1796875,36.0,-1.25,18.84375,0.0,0.0,0.0
1696286795829,-0.5810547,-0.04296875,0.35058594,8.40625,-9.78125,22.4375,-78.875,-44.5,-186.625
1696286795859,-0.7207031,-0.15917969,0.19238281,-74.65625,-9.96875,18.40625,0.0,0.0,0.0
1696286795919,-0.5888672,0.11816406,0.083984375,-96.5625,-27.65625,21.09375,0.0,0.0,0.0
1696286795949,-0.5908203,-0.033203125,0.25878906,40.4375,-29.75,29.15625,0.0,0.0,0.0
1696286795982,-0.9169922,-0.22265625,0.63378906,-21.0,-65.25,17.875,0.0,0.0,0.0
1696286796041,-1.8212891,-0.099609375,0.8857422,127.71875,-191.78125,43.6875,0.0,0.0,0.0
1696286796071,-1.7470703,0.34277344,0.5703125,145.8125,-214.125,62.96875,0.0,0.0,0.0
1696286796100,-1.3076172,0.71875,0.58496094,-25.21875,-155.84375,77.9375,0.0,0.0,0.0
1696286796160,-1.2226562,0.17089844,0.5751953,-45.78125,-44.9375,4.1875,0.0,0.0,0.0
1696286796192,-0.6689453,0.12890625,0.5029297,-5.875,2.84375,-14.65625,0.0,0.0,0.0
1696286796219,-0.50683594,0.18652344,0.24804688,-9.84375,42.78125,-7.53125,0.0,0.0,0.0
1696286796280,-0.38671875,0.2734375,0.2626953,-27.90625,91.78125,-11.125,0.0,0.0,0.0
1696286796309,-0.42285156,0.25585938,0.18945312,-2.21875,109.65625,-12.21875,0.0,0.0,0.0
1696286796464,-0.64941406,-0.15820312,0.20507812,86.78125,113.625,-10.6875,-72.875,-37.1875,-170.625
1696286796467,-0.6308594,-0.20214844,0.4140625,47.71875,107.59375,-40.1875,0.0,0.0,0.0
1696286796468,-0.61621094,0.015625,0.49804688,-22.71875,113.375,-67.09375,0.0,0.0,0.0
1696286796470,-1.2099609,0.18164062,0.68066406,-39.5625,73.84375,-64.59375,0.0,0.0,0.0
1696286796520,-0.8486328,0.46679688,0.37304688,-40.59375,55.46875,-44.8125,0.0,0.0,0.0
1696286796551,-0.56152344,0.3486328,0.42578125,-24.25,-1.3125,3.59375,0.0,0.0,0.0
1696286796609,-1.1318359,0.07421875,0.041992188,-9.15625,4.875,27.375,0.0,0.0,0.0
1696286796640,-1.6621094,-0.30566406,0.35546875,-130.03125,10.125,2.5625,0.0,0.0,0.0
1696286796670,-1.3691406,-0.40234375,-0.091796875,-125.875,-45.59375,-4.53125,0.0,0.0,0.0
1696286796699,-1.6064453,-0.4013672,0.044921875,14.8125,-1.84375,-9.84375,0.0,0.0,0.0
1696286796820,-1.3828125,-0.31933594,0.3232422,-74.1875,26.34375,-20.71875,0.0,0.0,0.0
1696286796821,-1.0917969,-0.061523438,0.095703125,-11.78125,36.0625,-19.78125,0.0,0.0,0.0
1696286796822,-0.8251953,-0.060546875,0.21777344,75.3125,37.53125,-4.21875,-75.4375,-48.5625,-188.4375
1696286796881,-0.6582031,-0.14160156,0.39941406,50.03125,26.59375,3.90625,0.0,0.0,0.0
1696286796913,-0.5078125,0.076171875,0.31835938,-9.34375,7.96875,5.53125,0.0,0.0,0.0
1696286796942,-0.69140625,0.08496094,0.36132812,11.21875,-15.75,19.9375,0.0,0.0,0.0
1696286797002,-0.5800781,-0.072265625,0.06542969,-53.78125,-26.25,21.40625,0.0,0.0,0.0
1696286797029,-0.60839844,-0.39648438,-0.09375,20.375,-8.4375,20.75,0.0,0.0,0.0
1696286797060,-0.8984375,-0.18554688,0.58203125,147.03125,-26.9375,17.6875,0.0,0.0,0.0
1696286797119,-0.828125,-0.421875,0.09765625,-50.25,-35.28125,4.1875,0.0,0.0,0.0
1696286797152,-1.7070312,-0.046875,0.6855469,103.3125,-134.28125,6.875,0.0,0.0,0.0
1696286797179,-1.5849609,0.5449219,0.35546875,37.75,-162.25,18.0,0.0,0.0,0.0
1696286797242,-1.5976562,0.57910156,0.3359375,9.3125,-163.28125,70.53125,0.0,0.0,0.0
1696286797269,-1.0634766,0.08105469,0.61816406,88.4375,-131.125,67.71875,0.0,0.0,0.0
1696286797301,-0.79589844,-0.078125,0.45507812,37.875,-31.21875,-4.78125,0.0,0.0,0.0
1696286797360,-0.6738281,0.28125,0.30664062,8.34375,21.34375,-18.875,-66.625,-39.5625,-168.0625
1696286797390,-0.45410156,0.34960938,0.15429688,18.71875,62.3125,-21.0625,0.0,0.0,0.0
1696286797452,-0.3701172,0.34570312,0.09765625,6.15625,92.34375,-18.5625,0.0,0.0,0.0
1696286797481,-0.5019531,0.024414062,0.18457031,16.15625,121.09375,-39.25,0.0,0.0,0.0
1696286797513,-0.8720703,-0.21679688,0.21777344,-55.625,139.09375,-55.8125,0.0,0.0,0.0
1696286797541,-0.58691406,-0.09765625,0.23046875,18.125,88.375,-72.40625,0.0,0.0,0.0
1696286797603,-0.81933594,0.21875,1.1513672,142.75,129.75,-62.09375,0.0,0.0,0.0
1696286797664,-0.7578125,0.44628906,0.7402344,-172.875,-0.9375,-25.71875,0.0,0.0,0.0
1696286797666,-0.74316406,0.26367188,0.05078125,-181.09375,9.1875,-12.90625,0.0,0.0,0.0
1696286797811,-1.4990234,0.30273438,0.3701172,145.1875,15.96875,40.8125,0.0,0.0,0.0
1696286797814,-1.7792969,-0.37402344,0.9355469,-92.46875,-2.75,-2.59375,0.0,0.0,0.0
1696286797816,-1.1630859,-0.18261719,-0.22851562,-264.84375,-40.125,-19.5,0.0,0.0,0.0
1696286797908,-1.7451172,-0.19921875,-0.028320312,61.5,21.53125,-2.15625,-73.9375,-52.1875,-191.3125
1696286797909,-1.2783203,-0.6269531,-0.043945312,21.09375,31.34375,-17.78125,0.0,0.0,0.0
1696286797911,-1.1621094,0.20800781,-0.12792969,86.53125,50.28125,-1.3125,0.0,0.0,0.0
1696286797961,-0.8798828,0.23242188,0.265625,197.3125,47.59375,9.9375,0.0,0.0,0.0
1696286797993,-0.7910156,-0.34472656,0.34277344,-59.03125,37.03125,-3.0,0.0,0.0,0.0
1696286798021,-0.7324219,-0.15625,0.12988281,-39.75,33.0625,0.28125,0.0,0.0,0.0
1696286798083,-0.64746094,-0.24023438,0.45117188,56.9375,2.5,8.84375,0.0,0.0,0.0
1696286798110,-0.5732422,-0.017578125,0.12890625,28.25,-15.75,16.09375,0.0,0.0,0.0
1696286798142,-0.44433594,-0.23632812,-0.15917969,78.53125,-11.0,13.03125,0.0,0.0,0.0
1696286798289,-1.0488281,-0.09863281,0.6376953,273.71875,18.40625,33.625,0.0,0.0,0.0
1696286798321,-0.69433594,-0.23242188,-0.001953125,-32.65625,-19.65625,32.09375,0.0,0.0,0.0
1696286798347,-0.87109375,-0.20898438,0.4248047,156.25,-10.625,26.71875,0.0,0.0,0.0
1696286798409,-1.1582031,-0.17871094,0.28808594,68.15625,-24.0,20.84375,0.0,0.0,0.0
1696286798466,-1.7089844,0.041992188,0.546875,77.8125,-104.625,15.1875,-75.4375,-45.4375,-185.75
1696286798467,-1.7373047,0.40039062,0.24804688,111.375,-126.65625,-6.5,0.0,0.0,0.0
1696286798496,-1.5419922,0.20019531,0.29296875,-30.78125,-120.1875,-22.0625,0.0,0.0,0.0
1696286798559,-1.2626953,0.01953125,0.12890625,-37.625,-59.40625,-17.71875,0.0,0.0,0.0
1696286798596,-1.1054688,-0.34765625,0.25195312,56.625,-23.09375,-22.53125,0.0,0.0,0.0
1696286798597,-0.7421875,-0.0146484375,0.009765625,15.4375,9.5,-31.15625,0.0,0.0,0.0
1696286798598,-0.5576172,0.32421875,-0.07910156,12.5,34.78125,-37.125,0.0,0.0,0.0
1696286798620,-0.59765625,0.171875,0.0546875,82.25,48.375,-39.4375,0.0,0.0,0.0
1696286798830,-0.43652344,0.38085938,0.16210938,74.15625,32.21875,-38.09375,0.0,0.0,0.0
1696286798832,-0.6064453,0.026367188,0.30859375,87.875,32.8125,-4.90625,0.0,0.0,0.0
1696286798833,-0.9248047,-0.4892578,0.64453125,87.875,26.71875,-9.34375,0.0,0.0,0.0
1696286798834,-0.53222656,0.328125,0.5097656,238.28125,-57.03125,-10.21875,0.0,0.0,0.0
1696286798836,-0.7207031,0.4638672,0.3671875,131.5625,13.40625,-1.65625,0.0,0.0,0.0
1696286798858,-1.0039062,0.35546875,0.8828125,46.8125,-15.21875,-12.78125,-70.8125,-36.125,-174.0625
1696286798920,-1.8691406,-0.7373047,-1.765625,-29.5625,63.65625,-76.125,0.0,0.0,0.0
1696286798951,-1.0800781,1.0117188,2.0,-58.5,7.3125,-37.4375,0.0,0.0,0.0
1696286798981,-1.9169922,-0.7705078,0.3857422,-173.71875,39.40625,32.9375,0.0,0.0,0.0
1696286799047,-1.2851562,-0.40820312,-0.03515625,-154.25,66.40625,-23.625,0.0,0.0,0.0
1696286799069,-1.390625,-0.017578125,-0.20898438,-54.9375,86.96875,-26.03125,0.0,0.0,0.0
1696286799099,-1.0654297,0.23925781,-0.12011719,169.78125,52.46875,8.59375,0.0,0.0,0.0
1696286799160,-0.8535156,0.02734375,0.18066406,219.21875,74.75,9.5625,0.0,0.0,0.0
1696286799191,-0.5253906,-0.15917969,0.2705078,149.46875,71.8125,-7.34375,0.0,0.0,0.0
1696286799220,-0.63183594,-0.15136719,0.060546875,-52.3125,52.46875,-13.6875,0.0,0.0,0.0
1696286799279,-0.79003906,-0.049804688,-0.00390625,-44.75,72.5625,-4.15625,0.0,0.0,0.0
1696286799309,-1.0712891,-0.23242188,0.2685547,52.96875,119.375,6.6875,0.0,0.0,0.0
1696286799339,-1.3398438,0.16015625,0.5859375,44.46875,131.75,0.71875,-78.4375,-39.5625,-191.4375
1696286799429,-1.3603516,-0.31152344,0.328125,-33.71875,-45.65625,41.78125,0.0,0.0,0.0
1696286799462,-1.6972656,-0.41210938,-0.0703125,58.8125,-27.3125,26.96875,0.0,0.0,0.0
1696286799466,-1.4482422,-0.7089844,0.038085938,141.28125,-169.625,19.875,0.0,0.0,0.0
1696286799491,-1.0986328,0.22167969,-0.3017578,164.0,-238.59375,19.6875,0.0,0.0,0.0
1696286799552,-0.9326172,0.060546875,0.0087890625,148.1875,-172.875,21.28125,0.0,0.0,0.0
1696286799582,-1.4736328,-0.46679688,0.0146484375,82.4375,-140.53125,56.3125,0.0,0.0,0.0
1696286799612,-1.0654297,-0.46289062,-0.08105469,150.0,-155.15625,9.8125,0.0,0.0,0.0
1696286799671,-0.91796875,-0.41503906,-0.08691406,206.28125,-69.03125,-54.65625,0.0,0.0,0.0
1696286799765,-0.84765625,0.0,-0.10839844,190.53125,-79.59375,-96.34375,0.0,0.0,0.0
1696286799770,-0.7265625,0.10546875,-0.24707031,245.53125,-41.40625,-89.75,0.0,0.0,0.0
1696286799791,-0.6425781,0.21972656,-0.044921875,173.5625,-4.78125,-81.375,0.0,0.0,0.0
1696286799820,-0.6347656,0.4111328,0.15039062,91.53125,50.15625,-83.75,0.0,0.0,0.0
1696286799882,-1.0068359,0.06933594,0.4189453,86.96875,102.09375,-76.5625,-69.4375,-18.125,-174.1875
1696286799910,-1.5205078,0.07128906,0.99316406,176.125,42.40625,-41.40625,0.0,0.0,0.0
1696286799946,-0.7578125,0.37890625,0.5341797,114.0,-60.5625,-0.875,0.0,0.0,0.0
1696286799973,-0.5341797,0.27539062,0.17382812,86.78125,-13.5625,-15.34375,0.0,0.0,0.0
1696286800033,-0.9814453,-0.59375,0.030273438,-46.78125,67.90625,-59.71875,0.0,0.0,0.0
1696286800065,-2.0,-0.23535156,0.41308594,-45.59375,-13.1875,-63.8125,0.0,0.0,0.0
1696286800089,-0.47070312,0.11621094,-0.21289062,21.28125,2.0,-51.78125,0.0,0.0,0.0
1696286800221,-1.0507812,-0.03125,-0.27441406,14.75,44.65625,27.09375,0.0,0.0,0.0
1696286800246,-1.3359375,-0.40722656,-0.36621094,212.3125,79.8125,-33.40625,0.0,0.0,0.0
1696286800249,-0.9238281,0.36523438,0.546875,94.78125,116.75,-77.96875,0.0,0.0,0.0
1696286800269,-1.0244141,-0.12109375,0.29492188,67.25,33.84375,-25.59375,0.0,0.0,0.0
1696286800299,-0.7402344,-0.31933594,-0.09667969,-6.84375,15.25,-21.4375,0.0,0.0,0.0
1696286800363,-0.98339844,-0.1796875,-0.15429688,39.0,46.4375,-21.0625,-78.125,-20.375,-191.125
1696286800420,-0.9902344,-0.18554688,0.1796875,79.15625,92.28125,-13.125,0.0,0.0,0.0
1696286800451,-0.96972656,-0.15820312,0.265625,28.375,50.21875,-18.3125,0.0,0.0,0.0
1696286800454,-0.953125,0.123046875,0.16015625,27.4375,36.375,-13.375,0.0,0.0,0.0
1696286800509,-1.140625,0.08496094,0.16699219,60.46875,0.96875,13.84375,0.0,0.0,0.0
1696286800537,-1.4658203,-0.10839844,0.48242188,24.65625,-36.34375,24.09375,0.0,0.0,0.0
1696286800573,-1.3388672,-0.0126953125,0.34570312,52.09375,-208.375,25.5,0.0,0.0,0.0
1696286800661,-0.96972656,0.43554688,-0.0068359375,-109.4375,-173.0625,29.90625,0.0,0.0,0.0
1696286800692,-1.4101562,-0.3828125,-0.8378906,13.46875,-193.9375,39.65625,0.0,0.0,0.0
1696286800695,-1.5644531,-0.16796875,0.6201172,322.4375,-140.34375,88.375,0.0,0.0,0.0
1696286800811,-0.55566406,0.013671875,-0.28222656,51.5,-73.125,54.375,0.0,0.0,0.0
1696286800845,-0.5332031,-0.10058594,0.09863281,-15.9375,-35.0,0.0,0.0,0.0,0.0
1696286800870,-0.38378906,0.203125,0.14453125,-64.34375,-8.75,-20.34375,0.0,0.0,0.0
1696286800929,-0.21289062,0.33203125,0.034179688,-11.90625,39.0,-33.34375,-70.0625,-11.1875,-176.75
1696286800963,-0.37402344,-0.0146484375,0.021484375,20.75,51.6875,-41.6875,0.0,0.0,0.0
1696286800965,-0.93066406,-0.21777344,0.5126953,197.6875,120.15625,-75.9375,0.0,0.0,0.0
1696286800992,-1.2734375,-0.14453125,0.45996094,91.96875,74.8125,-84.0625,0.0,0.0,0.0
1696286801050,-0.68359375,0.4609375,0.41796875,-76.3125,54.4375,-57.09375,0.0,0.0,0.0
1696286801081,-0.6855469,0.25,0.53027344,-77.40625,15.5625,-23.8125,0.0,0.0,0.0
1696286801109,-1.5888672,0.3671875,0.20996094,-6.71875,-23.21875,24.8125,0.0,0.0,0.0
1696286801141,-1.2861328,-0.7480469,-9.765625E-4,-183.96875,-19.375,-30.59375,0.0,0.0,0.0
1696286801174,-1.2363281,-0.484375,0.5488281,-75.03125,1.15625,-43.03125,0.0,0.0,0.0
1696286801228,-1.2353516,-0.064453125,0.2578125,-30.34375,-23.4375,4.75,0.0,0.0,0.0
1696286801262,-1.0820312,-0.14941406,-0.119140625,-9.40625,28.65625,-0.6875,0.0,0.0,0.0
1696286801289,-1.2480469,-0.33398438,0.7578125,129.0,51.1875,-2.53125,0.0,0.0,0.0
1696286801353,-0.72558594,0.030273438,0.123046875,-99.6875,44.0,-5.09375,-77.375,-19.3125,-188.3125
1696286801380,-0.6142578,0.08300781,0.40234375,78.84375,24.71875,15.1875,0.0,0.0,0.0
1696286801412,-0.5185547,-0.03125,0.3408203,-43.84375,1.625,16.34375,0.0,0.0,0.0
1696286801474,-0.65234375,-0.19042969,0.25976562,-13.6875,-4.28125,26.09375,0.0,0.0,0.0
1696286801500,-0.74902344,0.01171875,0.34277344,-69.21875,-27.34375,18.96875,0.0,0.0,0.0
1696286801560,-0.5449219,-0.15722656,-0.017578125,-54.03125,-15.8125,21.59375,0.0,0.0,0.0
1696286801591,-0.9296875,-0.36816406,0.5048828,85.6875,-52.9375,28.1875,0.0,0.0,0.0
1696286801621,-1.1191406,0.07714844,0.48535156,74.8125,-76.25,32.8125,0.0,0.0,0.0
1696286801649,-1.5878906,0.10449219,0.5908203,82.875,-131.71875,25.0625,0.0,0.0,0.0
1696286801710,-1.7148438,0.40722656,0.4921875,39.71875,-155.96875,27.75,0.0,0.0,0.0
1696286801741,-1.4462891,0.38476562,0.36328125,-95.78125,-107.875,22.25,0.0,0.0,0.0
1696286801771,-1.0205078,0.16894531,0.3515625,-34.1875,-16.375,-12.65625,0.0,0.0,0.0
1696286801838,-0.6796875,0.017578125,0.37109375,-37.5625,21.59375,-3.0,0.0,0.0,0.0
1696286801860,-0.5517578,0.15234375,0.13671875,8.28125,53.5625,6.6875,-70.0625,-11.9375,-175.375
1696286801892,-0.59277344,0.125,0.06542969,30.0,96.84375,2.71875,0.0,0.0,0.0
1696286802103,-0.7207031,0.080078125,0.001953125,45.34375,135.0,-22.96875,0.0,0.0,0.0
1696286802106,-0.5888672,-0.049804688,0.32226562,144.46875,105.21875,-35.28125,0.0,0.0,0.0
1696286802128,-0.6699219,-0.10058594,0.12988281,72.5,60.15625,-68.875,0.0,0.0,0.0
1696286802192,-1.0039062,0.06933594,0.20410156,-16.4375,132.0,-71.90625,0.0,0.0,0.0
1696286802222,-0.72753906,0.6376953,0.8173828,-87.84375,15.4375,-50.96875,0.0,0.0,0.0
1696286802226,-0.6035156,0.61621094,0.13476562,-330.40625,-58.90625,9.125,0.0,0.0,0.0
1696286802228,-1.6074219,0.20800781,-0.09375,-71.375,-12.78125,81.09375,0.0,0.0,0.0
1696286802229,-1.7910156,-1.1044922,0.29492188,-20.03125,5.1875,6.28125,0.0,0.0,0.0
1696286802249,-1.953125,-0.19042969,1.4667969,69.6875,-25.59375,-2.40625,0.0,0.0,0.0
1696286802311,-0.9902344,-0.20410156,-0.0126953125,-170.96875,-17.09375,-32.71875,0.0,0.0,0.0
1696286802374,-1.1738281,-0.21386719,-0.14941406,44.0625,25.1875,5.90625,-76.625,-20.9375,-181.875
1696286802404,-1.1914062,-0.045898438,0.29785156,134.4375,74.75,8.03125,0.0,0.0,0.0
1696286802432,-0.92871094,-0.01953125,0.20019531,27.375,56.1875,8.34375,0.0,0.0,0.0
1696286802470,-0.7470703,0.0,0.34375,45.46875,30.8125,17.1875,0.0,0.0,0.0
1696286802489,-0.59765625,-0.056640625,0.20019531,-3.5625,22.6875,19.6875,0.0,0.0,0.0
1696286802580,-0.4765625,0.016601562,0.15820312,27.21875,-6.0,22.9375,0.0,0.0,0.0
1696286802582,-0.6699219,-0.17382812,0.5253906,-8.1875,-18.25,13.0,0.0,0.0,0.0
1696286802609,-0.84472656,-0.18066406,0.076171875,-104.03125,-36.15625,1.03125,0.0,0.0,0.0
1696286802705,-0.7080078,-0.34472656,-0.02734375,18.1875,-50.84375,8.46875,0.0,0.0,0.0
1696286802733,-0.91503906,-0.111328125,0.4951172,41.25,-65.25,17.1875,0.0,0.0,0.0
1696286802790,-1.4628906,0.020507812,0.71777344,31.46875,-107.75,6.03125,0.0,0.0,0.0
1696286802836,-1.8808594,0.14941406,0.56933594,64.875,-171.40625,-2.8125,0.0,0.0,0.0
1696286802837,-1.3056641,0.40234375,0.2998047,53.8125,-150.96875,20.625,0.0,0.0,0.0
1696286802847,-1.0791016,0.103515625,0.5175781,106.0625,-78.4375,63.09375,-65.875,-13.1875,-174.5
1696286802940,-1.0458984,0.46679688,0.34765625,17.3125,-17.15625,9.5,0.0,0.0,0.0
1696286802941,-0.7001953,0.43164062,0.12402344,11.65625,-4.59375,8.15625,0.0,0.0,0.0
1696286802971,-0.3642578,0.2626953,0.0859375,-14.3125,41.375,13.71875,0.0,0.0,0.0
1696286803062,-0.46191406,-0.024414062,0.0859375,-52.9375,65.78125,2.4375,0.0,0.0,0.0
1696286803063,-0.42382812,-0.16503906,0.17578125,-31.9375,88.90625,-42.6875,0.0,0.0,0.0
1696286803096,-0.4794922,-0.16210938,0.18652344,69.4375,122.40625,-82.65625,0.0,0.0,0.0
1696286803148,-0.9814453,0.09667969,0.40820312,85.375,150.9375,-89.96875,0.0,0.0,0.0
1696286803180,-0.64453125,0.31054688,1.0351562,-14.59375,18.71875,-53.96875,0.0,0.0,0.0
1696286803210,-0.79296875,0.44921875,0.62402344,-179.8125,28.4375,-11.0625,0.0,0.0,0.0
1696286803272,-1.546875,0.45117188,-0.37695312,-395.46875,4.125,-18.21875,0.0,0.0,0.0
1696286803302,-1.25,-0.31835938,-0.44335938,24.75,-73.8125,-4.90625,0.0,0.0,0.0
1696286803329,-2.0,-0.5019531,1.2197266,168.25,87.6875,26.65625,-72.625,-22.625,-180.1875
1696286803394,-0.8183594,-0.13671875,0.13671875,-167.5625,-30.59375,-26.6875,0.0,0.0,0.0
1696286803421,-1.1972656,-0.12109375,-0.265625,-116.28125,56.5625,5.53125,0.0,0.0,0.0
1696286803450,-1.3359375,-0.14550781,0.5488281,200.1875,71.40625,15.65625,0.0,0.0,0.0
1696286803543,-0.77246094,-0.10253906,0.38085938,-21.25,47.28125,-4.46875,0.0,0.0,0.0
1696286803545,-0.6484375,0.0107421875,0.13378906,-15.09375,47.71875,10.0625,0.0,0.0,0.0
1696286803569,-0.5341797,-0.041992188,0.37597656,81.59375,31.25,30.1875,0.0,0.0,0.0
1696286803630,-0.6064453,-0.16601562,0.40625,-59.40625,-0.9375,19.75,0.0,0.0,0.0
1696286803659,-0.62402344,-0.0234375,0.23535156,-29.375,-16.0625,15.71875,0.0,0.0,0.0
1696286803694,-0.71875,-0.022460938,0.28515625,-4.09375,-33.28125,24.40625,0.0,0.0,0.0
1696286803752,-0.75683594,-0.08691406,0.2607422,0.40625,-47.25,42.84375,0.0,0.0,0.0
1696286803781,-0.8574219,-0.5751953,0.08300781,72.0625,-45.71875,37.34375,0.0,0.0,0.0
1696286803808,-1.1708984,-0.4013672,0.41308594,46.5,-56.71875,7.0,0.0,0.0,0.0
1696286803870,-1.5449219,0.13183594,0.6904297,175.34375,-127.625,8.84375,-71.5625,-15.5625,-184.125
1696286803900,-1.5605469,0.25878906,0.32714844,93.5625,-159.375,17.0,0.0,0.0,0.0
1696286803961,-1.1542969,0.5732422,0.38867188,62.65625,-136.78125,43.4375,0.0,0.0,0.0
1696286803991,-1.0644531,0.0107421875,0.3095703,47.34375,-24.25,-2.09375,0.0,0.0,0.0
1696286804020,-0.9609375,0.11230469,0.18945312,14.8125,0.34375,-28.59375,0.0,0.0,0.0
1696286804050,-0.6660156,0.19335938,0.25,-33.03125,32.9375,-51.78125,0.0,0.0,0.0
1696286804113,-0.39941406,0.30664062,0.064453125,-31.5625,54.71875,-36.34375,0.0,0.0,0.0
1696286804140,-0.45214844,0.046875,0.034179688,23.25,91.59375,-28.46875,0.0,0.0,0.0
1696286804169,-0.58691406,-0.0029296875,0.021484375,118.03125,136.71875,-33.40625,0.0,0.0,0.0
1696286804233,-0.84375,0.28222656,0.5917969,119.90625,110.9375,-40.53125,0.0,0.0,0.0
1696286804294,-1.1464844,-0.05859375,0.9814453,9.375,64.5625,-25.34375,0.0,0.0,0.0
1696286804297,-0.8935547,0.22363281,0.71777344,97.875,-73.375,-3.8125,0.0,0.0,0.0
1696286804351,-1.234375,0.27929688,0.7158203,-13.6875,-24.5,-1.3125,-74.6875,-14.0625,-195.0625
1696286804383,-1.4755859,-0.11230469,-1.0566406,-449.84375,-37.0625,-83.15625,0.0,0.0,0.0
1696286804410,-1.3408203,-0.21777344,-0.43847656,-25.78125,58.59375,-58.4375,0.0,0.0,0.0
1696286804568,-1.6787109,0.11035156,0.68652344,181.125,20.90625,-10.875,0.0,0.0,0.0
1696286804593,-1.3398438,-0.0390625,-0.47070312,116.3125,12.5,-7.09375,0.0,0.0,0.0
1696286804594,-1.1396484,0.064453125,0.22558594,230.40625,100.21875,-9.34375,0.0,0.0,0.0
1696286804595,-0.92089844,-0.25097656,0.048828125,179.6875,72.96875,-14.34375,0.0,0.0,0.0
1696286804620,-0.6542969,0.0234375,0.1875,104.71875,91.21875,-34.5,0.0,0.0,0.0
1696286804652,-0.6503906,0.06347656,0.25195312,115.71875,65.46875,-18.5625,0.0,0.0,0.0
1696286804713,-0.8105469,-0.13671875,0.12988281,23.0,66.21875,-12.53125,0.0,0.0,0.0
1696286804775,-0.93066406,-0.14648438,0.047851562,19.5625,62.65625,-11.71875,0.0,0.0,0.0
1696286804802,-1.2080078,-0.17285156,0.32910156,16.28125,91.21875,-7.03125,0.0,0.0,0.0
1696286804830,-1.0322266,-0.0546875,0.064453125,-70.8125,40.75,-2.53125,0.0,0.0,0.0
1696286804860,-1.0302734,-0.013671875,-0.06542969,32.75,21.34375,15.3125,-72.875,-23.6875,-216.0625
1696286804889,-1.0546875,-0.14648438,0.28320312,184.8125,51.5,27.21875,0.0,0.0,0.0
1696286804953,-1.3251953,-0.47070312,0.39453125,122.59375,-18.03125,55.21875,0.0,0.0,0.0
1696286804980,-1.1503906,-0.82714844,-0.12988281,153.71875,-128.5625,44.0,0.0,0.0,0.0
1696286805011,-1.1474609,0.25097656,-0.17089844,91.96875,-163.15625,18.65625,0.0,0.0,0.0
1696286805075,-1.2001953,-0.02734375,-0.33789062,78.40625,-118.78125,23.1875,0.0,0.0,0.0
1696286805100,-1.53125,-0.5498047,0.21289062,148.84375,-129.21875,17.5,0.0,0.0,0.0
1696286805133,-1.296875,-0.34765625,-0.09082031,21.15625,-137.96875,-12.84375,0.0,0.0,0.0
1696286805193,-1.0527344,-0.0703125,-0.22753906,70.25,-118.0625,-26.5625,0.0,0.0,0.0
1696286805222,-1.1738281,-0.67871094,0.28515625,412.59375,-184.59375,-36.03125,0.0,0.0,0.0
1696286805250,-0.9267578,0.11035156,-0.37402344,218.78125,-92.53125,-43.34375,0.0,0.0,0.0
1696286805345,-0.66796875,0.35058594,-0.125,204.15625,-57.6875,-50.6875,0.0,0.0,0.0
1696286805374,-0.5996094,0.34960938,0.07421875,121.3125,-11.6875,-54.75,-81.875,-38.375,-196.375
1696286805434,-0.6826172,0.030273438,0.16015625,71.6875,29.53125,-59.84375,0.0,0.0,0.0
1696286805465,-0.9765625,0.033203125,0.5732422,84.34375,53.5625,-54.6875,0.0,0.0,0.0
1696286805466,-1.0234375,0.125,1.0800781,157.15625,-18.9375,-12.78125,0.0,0.0,0.0
1696286805491,-0.6357422,0.083984375,0.18359375,95.03125,-11.375,-20.40625,0.0,0.0,0.0
1696286805555,-0.6621094,-0.44433594,0.578125,69.0625,-21.4375,-88.53125,0.0,0.0,0.0
1696286805580,-2.0,-0.064453125,0.2763672,-34.25,-1.84375,-46.875,0.0,0.0,0.0
1696286805614,-0.54003906,0.12597656,-0.2705078,50.03125,-60.8125,-18.375,0.0,0.0,0.0
1696286805730,-0.84472656,-0.125,-0.29101562,107.40625,57.46875,20.25,0.0,0.0,0.0
1696286805800,-1.7734375,-0.5644531,0.40429688,121.03125,64.875,-7.46875,0.0,0.0,0.0
1696286805801,-1.0615234,0.08984375,0.036132812,-32.4375,42.96875,-58.71875,0.0,0.0,0.0
1696286805802,-0.9355469,0.037109375,0.044921875,44.46875,46.25,-34.4375,0.0,0.0,0.0
1696286805851,-0.8466797,-0.23730469,0.06933594,33.96875,63.875,-21.5,0.0,0.0,0.0
1696286805852,-0.9873047,-0.12011719,0.22070312,88.1875,64.375,-8.875,-79.375,-49.3125,-199.25
1696286806032,-0.9375,-0.025390625,0.23828125,34.28125,46.625,-17.21875,0.0,0.0,0.0
1696286806063,-0.9121094,0.020507812,0.21386719,52.28125,35.1875,-13.75,0.0,0.0,0.0
1696286806064,-0.9394531,0.049804688,0.44726562,50.78125,20.25,-0.5,0.0,0.0,0.0
1696286806067,-1.1259766,-0.053710938,0.44921875,-70.09375,-34.9375,16.65625,0.0,0.0,0.0
1696286806068,-1.4384766,-0.15136719,0.22070312,14.5625,-106.875,22.25,0.0,0.0,0.0
1696286806092,-1.2460938,0.3564453,0.20703125,82.0625,-166.34375,31.84375,0.0,0.0,0.0
1696286806154,-1.25,-0.20703125,-0.18066406,44.34375,-196.375,29.21875,0.0,0.0,0.0
1696286806186,-1.4951172,-0.38964844,0.11816406,70.65625,-152.71875,64.0,0.0,0.0,0.0
1696286806210,-0.7011719,-0.018554688,-0.14257812,95.8125,-87.71875,28.25,0.0,0.0,0.0
1696286806272,-0.5673828,0.026367188,0.12988281,-38.90625,-6.3125,-40.46875,0.0,0.0,0.0
1696286806301,-0.5576172,0.14453125,0.26367188,-50.6875,4.875,-39.6875,0.0,0.0,0.0
1696286806330,-0.41015625,0.2109375,0.09375,1.6875,42.03125,-43.09375,-76.1875,-44.6875,-178.25
1696286806425,-0.35253906,0.29882812,0.03125,-9.84375,76.34375,-49.5,0.0,0.0,0.0
1696286806427,-0.4814453,0.047851562,0.08886719,62.375,49.65625,-11.6875,0.0,0.0,0.0
1696286806449,-0.99316406,-0.22460938,0.6152344,161.78125,120.46875,-49.75,0.0,0.0,0.0
1696286806510,-0.9794922,0.20507812,0.7841797,19.03125,28.1875,-55.6875,0.0,0.0,0.0
1696286806571,-0.7792969,0.18847656,0.22167969,-80.28125,3.84375,-35.65625,0.0,0.0,0.0
1696286806574,-0.88964844,0.17089844,0.1796875,-99.0,36.59375,-38.34375,0.0,0.0,0.0
1696286806630,-1.3955078,-0.35351562,-0.35351562,-50.375,-4.15625,12.75,0.0,0.0,0.0
1696286806660,-1.1201172,-0.20507812,0.23730469,53.4375,-32.4375,-1.96875,0.0,0.0,0.0
1696286806692,-2.0,-0.53808594,1.1552734,50.71875,-89.84375,0.78125,0.0,0.0,0.0
1696286806781,-0.8925781,0.14746094,-0.15234375,-118.53125,-16.625,-32.59375,0.0,0.0,0.0
1696286806811,-0.9042969,-0.10546875,-0.26367188,5.0625,37.53125,3.71875,0.0,0.0,0.0
1696286806813,-1.0419922,-0.08105469,0.71777344,146.53125,1.75,13.71875,0.0,0.0,0.0
1696286806871,-1.0146484,-0.13671875,0.28222656,-111.03125,23.4375,-5.03125,-74.5625,-51.6875,-187.6875
1696286806903,-0.81152344,-0.020507812,0.2890625,-120.9375,22.3125,-21.625,0.0,0.0,0.0
1696286806929,-0.9003906,-0.25,0.3515625,-16.1875,-3.4375,3.34375,0.0,0.0,0.0
1696286807022,-0.82910156,-0.07128906,0.6542969,46.125,-40.59375,33.0,0.0,0.0,0.0
1696286807024,-0.87890625,-0.3408203,0.4013672,80.5,-142.03125,47.59375,0.0,0.0,0.0
1696286807050,-0.9160156,0.060546875,-0.22949219,159.34375,-220.84375,96.96875,0.0,0.0,0.0
1696286807115,-0.9169922,-0.08984375,0.3828125,200.90625,-214.75,134.1875,0.0,0.0,0.0
1696286807140,-1.0908203,0.15917969,0.2841797,14.5625,-63.0625,15.1875,0.0,0.0,0.0
1696286807169,-0.7783203,0.46875,0.40722656,-73.625,5.34375,-5.03125,0.0,0.0,0.0
1696286807230,-0.6357422,0.23242188,0.2763672,-44.625,84.03125,-31.5625,0.0,0.0,0.0
1696286807324,-0.40234375,0.052734375,0.17871094,-32.0,153.90625,-77.71875,0.0,0.0,0.0
1696286807328,-0.828125,-0.19726562,0.22753906,65.0625,211.78125,-94.0625,0.0,0.0,0.0
1696286807383,-1.2480469,0.0107421875,0.14648438,188.28125,225.3125,-89.4375,-76.375,-46.625,-182.125
1696286807386,-0.63183594,0.74121094,1.2734375,73.46875,50.09375,-35.53125,0.0,0.0,0.0
1696286807411,-0.1015625,0.5722656,0.6591797,-128.5,-85.71875,20.8125,0.0,0.0,0.0
1696286807509,-1.7402344,-1.1660156,-0.18164062,-359.34375,-19.5,-27.53125,0.0,0.0,0.0
1696286807529,-1.59375,-0.23339844,0.4296875,38.5625,-33.65625,-20.78125,0.0,0.0,0.0
1696286807530,-1.6552734,-0.24511719,0.5390625,-34.9375,6.03125,-12.78125,0.0,0.0,0.0
1696286807562,-0.9824219,-0.23535156,0.0859375,-74.46875,16.15625,6.28125,0.0,0.0,0.0
1696286807619,-1.0439453,0.024414062,0.6699219,143.46875,-26.875,17.875,0.0,0.0,0.0
1696286807651,-0.7714844,0.48339844,0.6308594,76.9375,-113.59375,48.1875,0.0,0.0,0.0
1696286807679,-0.3486328,0.17578125,-0.21191406,-36.5625,-192.71875,90.875,0.0,0.0,0.0
1696286807741,-0.27734375,-0.29101562,-0.5595703,221.3125,-100.0625,134.3125,0.0,0.0,0.0
1696286807771,-0.5800781,0.21289062,0.25683594,-24.5,-99.5,67.5625,0.0,0.0,0.0
1696286807800,-1.0761719,-0.051757812,0.3857422,28.0,-19.96875,-19.53125,0.0,0.0,0.0
1696286807859,-1.1552734,0.3798828,0.68652344,-75.6875,91.78125,-43.84375,-68.25,-40.75,-167.875
1696286807890,-0.9785156,0.6171875,0.7675781,144.5625,156.84375,-103.09375,0.0,0.0,0.0
1696286807920,-0.7871094,0.2421875,0.26367188,38.5,165.5625,-80.65625,0.0,0.0,0.0
1696286807981,-1.0693359,-0.119140625,0.1328125,-24.25,176.125,-86.125,0.0,0.0,0.0
1696286808010,-0.51464844,0.0048828125,0.20214844,145.90625,84.40625,-51.46875,0.0,0.0,0.0
1696286808041,-0.022460938,1.1396484,0.55859375,230.5,-76.8125,24.21875,0.0,0.0,0.0
1696286808101,-1.3173828,-0.34765625,-0.13378906,-405.46875,-37.4375,-14.0625,0.0,0.0,0.0
1696286808129,-2.0,-0.296875,0.35839844,-33.65625,-51.21875,-13.0625,0.0,0.0,0.0
1696286808159,-1.0625,-0.06640625,0.13085938,-20.875,-19.0,-4.34375,0.0,0.0,0.0
1696286808219,-1.0019531,-0.38964844,0.0,71.59375,47.96875,-1.53125,0.0,0.0,0.0
1696286808247,-1.2041016,-0.09375,0.859375,104.15625,30.0,2.25,0.0,0.0,0.0
1696286808280,-0.7714844,-0.12011719,0.5,-20.78125,17.6875,2.0,0.0,0.0,0.0
1696286808341,-0.5419922,-0.14648438,0.29882812,87.03125,-20.34375,25.4375,-76.375,-49.1875,-185.875
1696286808370,-0.87402344,-0.053710938,0.63964844,64.5,-80.21875,29.03125,0.0,0.0,0.0
1696286808398,-1.1337891,-0.018554688,0.040039062,98.125,-128.3125,4.75,0.0,0.0,0.0
1696286808459,-1.4013672,-0.08691406,0.22265625,196.875,-107.125,1.03125,0.0,0.0,0.0
1696286808490,-1.5595703,0.059570312,0.53027344,41.90625,-55.8125,-15.28125,0.0,0.0,0.0
1696286808520,-1.2158203,0.43652344,0.26171875,-70.75,-9.46875,-20.21875,0.0,0.0,0.0
1696286808580,-0.7207031,0.4013672,0.16796875,-17.71875,17.375,-42.9375,0.0,0.0,0.0
1696286808619,-0.44140625,0.12207031,-0.0068359375,12.1875,61.8125,-16.5,0.0,0.0,0.0
1696286808640,-0.6748047,-0.07910156,0.13964844,49.96875,86.59375,-11.71875,0.0,0.0,0.0
1696286808702,-0.5957031,0.037109375,0.09667969,121.9375,67.90625,-36.9375,0.0,0.0,0.0
1696286808730,-0.82421875,0.31933594,0.7138672,179.3125,169.1875,-38.78125,0.0,0.0,0.0
1696286808759,-1.2402344,0.4794922,1.5537109,29.59375,-129.46875,10.1875,0.0,0.0,0.0
1696286808849,-0.61328125,0.12207031,0.265625,-232.375,-13.625,-11.0,0.0,0.0,0.0
1696286808850,-0.5595703,-0.1875,0.74902344,155.4375,-64.78125,-19.375,-74.125,-43.4375,-176.0
1696286808880,-1.2753906,0.021484375,-1.2685547,-88.15625,-32.125,13.71875,0.0,0.0,0.0
1696286808941,-2.0,0.37304688,-0.4169922,-104.75,101.5,10.25,0.0,0.0,0.0
1696286808969,-1.2685547,-0.57714844,0.12988281,-218.28125,19.75,-45.90625,0.0,0.0,0.0
1696286809001,-1.3164062,-0.061523438,-0.4267578,-173.90625,68.09375,-31.5,0.0,0.0,0.0
1696286809061,-1.2246094,0.03125,-0.4638672,166.125,76.28125,20.96875,0.0,0.0,0.0
1696286809093,-0.79296875,0.37109375,0.59375,364.25,114.0,2.0625,0.0,0.0,0.0
1696286809121,-0.63378906,-0.39648438,0.25,30.1875,54.125,-11.0,0.0,0.0,0.0
1696286809185,-0.5546875,-0.14160156,-0.15136719,-65.25,43.125,-17.03125,0.0,0.0,0.0
1696286809211,-0.82421875,0.13085938,-0.043945312,2.25,65.65625,-2.53125,0.0,0.0,0.0
1696286809248,-0.94140625,-0.0234375,0.41015625,123.40625,153.5625,17.875,0.0,0.0,0.0
1696286809361,-1.2294922,-0.3203125,0.5371094,-16.3125,67.6875,20.0625,0.0,0.0,0.0
1696286809363,-1.3154297,-0.12988281,0.12988281,-73.3125,18.96875,18.40625,-80.875,-43.625,-193.6875
1696286809363,-1.6816406,-0.28320312,0.20703125,225.09375,-46.28125,38.0625,0.0,0.0,0.0
1696286809422,-1.3115234,-0.6894531,-0.059570312,77.8125,-116.84375,23.46875,0.0,0.0,0.0
1696286809450,-1.1630859,0.06542969,-0.16699219,56.8125,-211.6875,17.0625,0.0,0.0,0.0
1696286809480,-0.94433594,0.10253906,-0.30078125,165.6875,-141.1875,14.375,0.0,0.0,0.0
1696286809539,-1.2119141,-0.46972656,0.28125,61.4375,-139.96875,25.8125,0.0,0.0,0.0
1696286809569,-1.2080078,-0.6972656,-0.44433594,130.59375,-158.71875,-5.8125,0.0,0.0,0.0
1696286809602,-1.1210938,-0.7451172,0.0048828125,244.625,-163.03125,-41.875,0.0,0.0,0.0
1696286809694,-0.8691406,0.10839844,-0.3515625,243.40625,-96.9375,-93.21875,0.0,0.0,0.0
1696286809698,-0.7685547,0.15820312,-0.2548828,234.0,-54.53125,-91.6875,0.0,0.0,0.0
1696286809721,-0.6113281,0.3310547,-0.05859375,155.0,7.5,-91.3125,0.0,0.0,0.0
1696286809815,-0.45898438,0.45214844,0.12109375,56.75,42.34375,-78.875,0.0,0.0,0.0
1696286809816,-0.82910156,0.12792969,0.3046875,36.4375,81.84375,-68.0,0.0,0.0,0.0
1696286809843,-1.4003906,0.2939453,1.1513672,88.90625,40.4375,-16.75,-70.9375,-23.5,-170.4375
1696286809901,-0.9375,-0.5283203,0.9970703,169.0625,-87.1875,-11.84375,0.0,0.0,0.0
1696286809930,-0.12988281,-0.8232422,0.39257812,96.125,-8.3125,-104.625,0.0,0.0,0.0
1696286809959,-1.3691406,-0.54785156,-0.15625,89.65625,37.8125,-71.71875,0.0,0.0,0.0
1696286810020,-2.0,0.7861328,1.3134766,36.3125,-113.71875,-10.5,0.0,0.0,0.0
1696286810051,-0.13964844,0.4921875,-0.42578125,16.90625,11.8125,-29.96875,0.0,0.0,0.0
1696286810079,-1.2724609,-0.44726562,-0.12597656,11.53125,31.78125,25.625,0.0,0.0,0.0
1696286810141,-1.5537109,-0.73535156,0.265625,35.15625,56.1875,-58.78125,0.0,0.0,0.0
1696286810170,-1.0322266,0.16699219,0.015625,112.46875,68.03125,-60.125,0.0,0.0,0.0
1696286810198,-0.98535156,0.030273438,0.16503906,145.625,44.78125,-29.3125,0.0,0.0,0.0
1696286810264,-0.70214844,-0.028320312,0.16308594,112.96875,42.53125,-23.09375,0.0,0.0,0.0
1696286810289,-0.7578125,0.041015625,0.28808594,98.4375,24.21875,-19.5,0.0,0.0,0.0
1696286810319,-0.703125,0.0546875,0.49609375,44.59375,17.1875,-17.15625,-75.875,-19.3125,-186.625
1696286810379,-0.69628906,-0.15039062,0.11621094,-61.96875,6.625,-18.21875,0.0,0.0,0.0
1696286810411,-0.9658203,-0.125,0.3515625,45.875,44.25,-8.3125,0.0,0.0,0.0
1696286810440,-0.7216797,-0.33007812,-0.16894531,-3.375,-28.6875,11.9375,0.0,0.0,0.0
1696286810500,-0.6064453,0.19726562,-0.14355469,91.59375,20.90625,13.28125,0.0,0.0,0.0
1696286810530,-0.91308594,0.029296875,0.31347656,136.34375,40.09375,14.625,0.0,0.0,0.0
1696286810591,-1.0888672,-0.08691406,0.2998047,-85.40625,5.0,9.125,0.0,0.0,0.0
1696286810625,-1.7949219,-0.23730469,0.87597656,100.21875,-122.34375,55.03125,0.0,0.0,0.0
1696286810651,-1.8642578,0.0146484375,0.005859375,-48.125,-189.03125,20.6875,0.0,0.0,0.0
1696286810682,-1.1083984,0.6796875,0.036132812,-10.5625,-169.4375,27.625,0.0,0.0,0.0
1696286810742,-1.4091797,0.021484375,0.4814453,55.78125,-213.09375,72.4375,0.0,0.0,0.0
1696286810771,-1.3339844,-0.5986328,0.25976562,38.375,-114.21875,31.0625,0.0,0.0,0.0
1696286810803,-0.40039062,0.3544922,0.076171875,37.71875,-72.28125,-15.75,0.0,0.0,0.0
1696286810860,-0.1875,0.5517578,0.25683594,4.125,39.96875,-40.71875,-63.3125,-11.5,-170.875
1696286810889,-0.47558594,0.28515625,0.09472656,-49.28125,80.84375,-33.28125,0.0,0.0,0.0
1696286810922,-0.5888672,0.140625,-0.078125,-29.9375,125.96875,-49.875,0.0,0.0,0.0
1696286810980,-0.9042969,-0.10839844,0.057617188,44.71875,173.375,-63.75,0.0,0.0,0.0
1696286811011,-1.0097656,-0.2109375,0.65625,233.1875,208.96875,-85.15625,0.0,0.0,0.0
1696286811040,-0.85058594,0.3544922,0.69921875,6.6875,88.84375,-70.4375,0.0,0.0,0.0
1696286811137,-0.23828125,0.58984375,0.40039062,-155.21875,11.21875,-28.46875,0.0,0.0,0.0
1696286811138,-0.8125,-0.06933594,0.12890625,-211.75,-31.8125,14.75,0.0,0.0,0.0
1696286811159,-2.0,-0.30566406,0.9501953,195.96875,-53.59375,24.9375,0.0,0.0,0.0
1696286811220,-0.9892578,-0.16015625,-0.0390625,-173.0,-32.84375,-42.9375,0.0,0.0,0.0
1696286811252,-1.6738281,-0.20410156,0.052734375,124.5625,-3.625,40.09375,0.0,0.0,0.0
1696286811282,-1.2578125,-0.4404297,0.80566406,-18.8125,52.40625,11.40625,0.0,0.0,0.0
1696286811342,-1.2539062,0.01953125,0.69921875,-82.65625,-9.96875,9.8125,-74.6875,-25.1875,-183.0625
1696286811371,-0.8232422,-0.020507812,0.51953125,29.46875,-125.0625,40.09375,0.0,0.0,0.0
1696286811401,-0.37597656,0.057617188,-0.39648438,64.75,-180.75,86.78125,0.0,0.0,0.0
1696286811461,0.12988281,-0.203125,-0.7246094,333.0625,-144.1875,64.3125,0.0,0.0,0.0
1696286811493,0.040039062,0.25097656,0.36621094,-49.28125,-88.9375,53.6875,0.0,0.0,0.0
1696286811523,-0.9091797,-0.3154297,0.19824219,-20.9375,4.3125,-2.6875,0.0,0.0,0.0
1696286811582,-1.3857422,0.3388672,0.28320312,-81.0,116.0,-45.71875,0.0,0.0,0.0
1696286811612,-1.6445312,0.70214844,0.75097656,88.375,196.9375,-69.21875,0.0,0.0,0.0
1696286811641,-0.5839844,0.24804688,0.6513672,97.40625,169.65625,-92.46875,0.0,0.0,0.0
1696286811702,-0.40527344,-0.14550781,0.33691406,-237.5625,75.1875,-28.21875,0.0,0.0,0.0
1696286811730,-0.39648438,-0.15332031,1.4892578,65.46875,-40.78125,-39.625,0.0,0.0,0.0
1696286811760,-2.0,0.00390625,0.6298828,-228.34375,-32.65625,-16.0625,0.0,0.0,0.0
1696286811821,-0.921875,-0.24804688,-0.20703125,-218.875,-57.8125,-46.28125,0.0,0.0,0.0
1696286811854,-1.4882812,-0.5175781,0.09472656,196.6875,19.09375,40.8125,-71.875,-32.1875,-183.0625
1696286811879,-1.3144531,-0.5332031,0.7470703,-106.09375,28.0625,-14.84375,0.0,0.0,0.0
1696286811970,-0.95703125,0.48632812,0.5625,8.65625,-66.1875,6.8125,0.0,0.0,0.0
1696286811971,-0.38671875,0.08984375,0.27441406,135.375,-131.65625,73.84375,0.0,0.0,0.0
1696286812001,-0.39453125,-0.12890625,-0.06347656,208.125,-173.71875,96.46875,0.0,0.0,0.0
1696286812093,-0.23242188,-0.2783203,-0.16894531,51.9375,-142.65625,102.28125,0.0,0.0,0.0
1696286812095,-1.0390625,0.06933594,0.515625,38.9375,-79.0625,47.15625,0.0,0.0,0.0
1696286812119,-1.4541016,0.5986328,0.234375,-66.25,-9.84375,-26.4375,0.0,0.0,0.0
1696286812180,-0.89941406,0.74609375,0.77441406,2.0,62.25,-57.09375,0.0,0.0,0.0
1696286812209,-0.7167969,0.52441406,0.9501953,82.9375,141.90625,-78.4375,0.0,0.0,0.0
1696286812241,-0.8046875,0.10546875,0.13769531,11.59375,171.875,-59.28125,0.0,0.0,0.0
1696286812301,-0.9404297,-0.1875,0.18847656,-16.5625,167.90625,-74.96875,0.0,0.0,0.0
1696286812330,-0.72265625,0.068359375,0.8095703,119.5625,121.625,-78.625,-72.3125,-28.9375,-188.75
1696286812359,-0.6152344,0.7089844,0.78222656,-91.6875,67.0,-36.5,0.0,0.0,0.0
1696286812423,-1.0341797,0.59375,-0.09472656,-227.25,-35.21875,48.5,0.0,0.0,0.0
1696286812454,-1.9482422,-0.66308594,-0.7080078,-303.90625,-38.84375,-4.09375,0.0,0.0,0.0
1696286812482,-1.9355469,-0.3857422,0.8623047,352.15625,-69.78125,19.6875,0.0,0.0,0.0
1696286812541,-1.2724609,-0.078125,-0.15234375,-106.09375,-3.8125,-22.96875,0.0,0.0,0.0
1696286812570,-1.0615234,0.00390625,-0.28320312,-17.09375,69.8125,0.40625,0.0,0.0,0.0
1696286812604,-1.2421875,-0.09472656,0.44726562,226.71875,81.71875,22.5,0.0,0.0,0.0
1696286812659,-0.6933594,0.0,0.43554688,-34.5,42.09375,-3.6875,0.0,0.0,0.0
1696286812691,-0.5449219,-0.0390625,0.20214844,-17.21875,44.65625,8.59375,0.0,0.0,0.0
1696286812719,-0.4375,-0.19921875,0.087890625,-18.75,32.40625,15.0625,0.0,0.0,0.0
1696286812778,-0.5625,-0.26171875,0.14160156,-4.90625,39.84375,9.25,0.0,0.0,0.0
1696286812811,-0.89941406,-0.091796875,0.4404297,42.46875,26.09375,15.71875,0.0,0.0,0.0
1696286812840,-0.9423828,-0.28515625,0.18261719,-2.21875,-7.03125,20.375,-78.3125,-29.0625,-201.9375
1696286812901,-0.68652344,0.10839844,-0.00390625,139.875,-25.59375,24.46875,0.0,0.0,0.0
1696286812931,-1.6015625,-0.25195312,1.1210938,174.59375,-38.21875,20.90625,0.0,0.0,0.0
1696286812959,-1.9902344,-0.061523438,0.2265625,-54.9375,-116.96875,-12.34375,0.0,0.0,0.0
1696286813117,-1.765625,0.37597656,0.08886719,74.9375,-136.25,-16.9375,0.0,0.0,0.0
1696286813118,-1.4423828,0.2919922,0.3232422,-14.125,-87.46875,-5.75,0.0,0.0,0.0
1696286813118,-1.1210938,-0.49316406,0.0048828125,54.78125,-74.96875,4.8125,0.0,0.0,0.0
1696286813138,-0.98339844,-0.45410156,-0.16210938,203.40625,-80.46875,-27.0,0.0,0.0,0.0
1696286813171,-0.3955078,0.15136719,-0.072265625,226.59375,-61.1875,-47.875,0.0,0.0,0.0
1696286813201,-0.3203125,0.36816406,-0.015625,127.5625,3.03125,-66.90625,0.0,0.0,0.0
1696286813261,-0.5410156,0.18359375,-0.0234375,132.5,28.65625,-63.5,0.0,0.0,0.0
1696286813291,-0.6660156,0.08984375,0.2578125,83.84375,68.71875,-65.375,0.0,0.0,0.0
1696286813323,-1.1210938,0.23144531,0.62109375,33.8125,87.09375,-57.6875,-80.5625,-30.6875,-200.0
1696286813413,-1.4990234,0.30273438,1.0820312,141.34375,-15.40625,-2.9375,0.0,0.0,0.0
1696286813415,-0.9003906,0.34960938,0.3232422,41.4375,-27.71875,-15.625,0.0,0.0,0.0
1696286813441,-1.3554688,-0.22753906,0.58496094,23.53125,-17.03125,-54.40625,0.0,0.0,0.0
1696286813498,-1.3564453,-0.45410156,0.043945312,-3.8125,-3.8125,-22.53125,0.0,0.0,0.0
1696286813529,-0.5205078,0.19042969,-0.23339844,1.625,-52.03125,7.5,0.0,0.0,0.0
1696286813562,-0.8779297,0.19335938,-0.18457031,-87.0625,100.25,-10.875,0.0,0.0,0.0
1696286813623,-1.2626953,-0.017578125,-0.20117188,-44.875,74.875,-7.875,0.0,0.0,0.0
1696286813650,-1.1005859,-0.23730469,-0.21386719,134.1875,46.0625,-22.125,0.0,0.0,0.0
1696286813679,-1.0302734,-0.05078125,0.17480469,157.34375,56.5,-53.53125,0.0,0.0,0.0
1696286813740,-0.9951172,0.0625,0.6953125,86.65625,100.75,-21.125,0.0,0.0,0.0
1696286813770,-0.8486328,-0.20605469,-0.02734375,-99.3125,-6.25,-22.84375,0.0,0.0,0.0
1696286813801,-1.0078125,-0.09765625,-0.18457031,-150.28125,30.4375,-24.96875,0.0,0.0,0.0
1696286813862,-0.96972656,-0.03125,-0.10449219,19.75,43.75,-9.0,-78.625,-35.0625,-216.0625
1696286813890,-0.94628906,-0.15820312,0.125,101.65625,57.46875,-4.90625,0.0,0.0,0.0
1696286813919,-1.0,-0.099609375,0.23046875,-10.5625,45.5625,-8.625,0.0,0.0,0.0
1696286813982,-0.9238281,0.0068359375,-0.046875,-56.59375,46.25,-4.21875,0.0,0.0,0.0
1696286814009,-1.0419922,-0.4482422,-0.11328125,13.0,11.28125,26.53125,0.0,0.0,0.0
1696286814040,-1.2060547,-0.20898438,-0.078125,23.0,9.25,0.28125,0.0,0.0,0.0
1696286814133,-1.0234375,0.0087890625,0.17285156,13.15625,30.1875,-12.53125,0.0,0.0,0.0
1696286814139,-1.0869141,-0.119140625,0.10546875,-21.6875,-3.6875,8.03125,0.0,0.0,0.0
1696286814164,-1.4101562,-0.41015625,0.041992188,39.15625,-30.65625,14.21875,0.0,0.0,0.0
1696286814224,-0.98828125,0.23339844,-0.115234375,35.8125,-64.78125,2.25,0.0,0.0,0.0
1696286814251,-0.9628906,0.45410156,0.059570312,-27.34375,-148.28125,47.84375,0.0,0.0,0.0
1696286814282,-1.109375,0.38964844,0.0087890625,-85.34375,-167.0625,43.3125,0.0,0.0,0.0
1696286814342,-1.2705078,0.07128906,-0.27734375,-87.96875,-101.625,48.375,-80.375,-31.4375,-209.875
1696286814371,-1.0800781,-0.01953125,-0.10839844,106.3125,-119.28125,59.5,0.0,0.0,0.0
1696286814398,-0.97265625,-0.08203125,0.115234375,47.09375,-123.90625,74.375,0.0,0.0,0.0
1696286814461,-0.54003906,0.22851562,0.099609375,12.9375,-61.34375,36.84375,0.0,0.0,0.0
1696286814490,-0.6953125,0.32128906,0.13964844,40.03125,-20.53125,23.125,0.0,0.0,0.0
1696286814520,-0.7158203,0.1640625,0.2529297,12.25,28.25,-0.625,0.0,0.0,0.0
