# Sensor type: Respeck
# Activity type: Sitting
# Activity subtype: Normal
# Subject id: s2094833
# Notes: 
timestamp,accel_x,accel_y,accel_z,gyro_x,gyro_y,gyro_z
1696287373472,0.3022461,-0.9155884,0.17816162,-1.4375,-0.6875,0.03125
1696287373516,0.3149414,-0.9248657,0.18035889,1.15625,-0.234375,-0.15625
1696287373547,0.31567383,-0.92852783,0.17791748,0.6875,-0.28125,-0.140625
1696287373593,0.31640625,-0.92144775,0.1708374,0.84375,0.28125,-0.515625
1696287373621,0.3137207,-0.92852783,0.17254639,0.859375,0.78125,-0.75
1696287373667,0.3154297,-0.9338989,0.16107178,1.46875,1.078125,-0.984375
1696287373713,0.31860352,-0.9351196,0.16644287,1.8125,0.65625,-0.5
1696287373741,0.31152344,-0.925354,0.16082764,3.90625,1.453125,-0.828125
1696287373787,0.31201172,-0.93634033,0.15325928,3.734375,0.90625,-0.4375
1696287373817,0.31567383,-0.9402466,0.13104248,-1.046875,0.15625,-1.265625
1696287373862,0.30517578,-0.93341064,0.1552124,2.828125,1.953125,0.328125
1696287373908,0.31274414,-0.94122314,0.13885498,2.734375,2.796875,-0.5625
1696287373937,0.31176758,-0.93170166,0.14007568,2.296875,1.484375,-0.015625
1696287373982,0.30981445,-0.9326782,0.13153076,3.78125,2.390625,-0.640625
1696287374027,0.31420898,-0.93292236,0.124694824,0.53125,0.890625,-0.15625
1696287374056,0.3059082,-0.93585205,0.12615967,1.21875,0.65625,-0.140625
1696287374102,0.30615234,-0.93829346,0.12884521,0.96875,0.796875,-0.03125
1696287374132,0.31201172,-0.92510986,0.1161499,1.046875,0.40625,-0.4375
1696287374177,0.3083496,-0.94000244,0.11956787,1.921875,-0.015625,-0.234375
1696287374222,0.3083496,-0.9331665,0.109313965,0.9375,-0.203125,-0.09375
1696287374252,0.31420898,-0.9365845,0.10662842,0.90625,0.359375,-0.5
1696287374300,0.3083496,-0.9378052,0.09954834,0.625,0.5625,-0.078125
1696287374327,0.30200195,-0.9265747,0.11151123,1.015625,0.859375,-0.296875
1696287374373,0.30664062,-0.93756104,0.10467529,2.25,0.21875,-0.25
1696287374418,0.31176758,-0.95147705,0.093933105,-1.125,0.734375,-0.890625
1696287374447,0.29370117,-0.9248657,0.1071167,4.8125,2.53125,0.765625
1696287374493,0.30981445,-0.94415283,0.090026855,5.71875,4.625,-0.953125
1696287374522,0.30297852,-0.90997314,0.0524292,6.4375,4.828125,-0.125
1696287374566,0.3083496,-0.93829346,0.058532715,4.53125,3.109375,-0.703125
1696287374612,0.30273438,-0.9492798,0.05682373,2.015625,1.015625,-0.375
1696287374643,0.30737305,-0.9365845,0.047790527,2.4375,0.140625,-0.0625
1696287374688,0.31103516,-0.9404907,0.05218506,0.71875,-1.1875,0.578125
1696287374733,0.3076172,-0.93927,0.055847168,1.453125,-0.703125,0.3125
1696287374762,0.30493164,-0.9458618,0.039001465,-0.53125,-1.859375,0.34375
1696287374809,0.30664062,-0.9368286,0.049987793,0.28125,-1.40625,-0.203125
1696287374838,0.30493164,-0.9402466,0.03753662,-0.390625,-1.671875,-0.078125
1696287374885,0.3046875,-0.95758057,0.038024902,-0.421875,-1.703125,0.046875
1696287374929,0.2944336,-0.93048096,0.0602417,0.453125,-1.453125,-0.15625
1696287374958,0.31396484,-0.9456177,0.039733887,0.140625,-2.59375,0.109375
1696287375005,0.30541992,-0.9561157,0.038269043,-2.109375,-2.15625,-0.203125
1696287375032,0.30078125,-0.9331665,0.062438965,1.21875,-1.421875,0.28125
1696287375079,0.30737305,-0.94195557,0.034118652,-1.015625,-1.1875,-0.359375
1696287375123,0.3022461,-0.9385376,0.04925537,-0.53125,-1.234375,0.0
1696287375152,0.2956543,-0.92926025,0.05218506,1.015625,-0.15625,0.1875
1696287375198,0.3100586,-0.9402466,0.039733887,-0.953125,-0.890625,-0.171875
1696287375243,0.30688477,-0.9390259,0.039978027,-0.546875,-1.15625,0.015625
1696287375272,0.30664062,-0.94659424,0.051452637,-0.4375,-0.921875,-0.0625
1696287375318,0.3059082,-0.94122314,0.043395996,-1.421875,-1.40625,-0.25
1696287375348,0.29956055,-0.944397,0.04949951,-0.4375,-1.421875,-0.25
1696287375394,0.30371094,-0.9385376,0.04852295,-1.140625,-1.296875,0.0625
1696287375439,0.3017578,-0.9380493,0.035339355,-0.65625,-1.234375,-0.1875
1696287375467,0.31103516,-0.942688,0.034362793,-1.5,-1.78125,-0.140625
1696287375513,0.29516602,-0.9368286,0.0692749,2.046875,-0.140625,-0.25
1696287375590,0.31396484,-0.9529419,0.03387451,-2.265625,-2.046875,-0.296875
1696287375594,0.28515625,-0.9492798,0.046325684,-1.125,-1.46875,0.65625
1696287375634,0.30859375,-0.9348755,0.054138184,-0.078125,-1.3125,-0.140625
1696287375664,0.30639648,-0.9468384,0.031188965,-0.4375,-0.5,-0.421875
1696287375709,0.30639648,-0.93634033,0.042175293,0.09375,-0.84375,-0.375
1696287375737,0.29125977,-0.9356079,0.05316162,1.5625,0.015625,-0.078125
1696287375783,0.30004883,-0.94195557,0.05218506,0.453125,-0.78125,-0.328125
1696287375829,0.29467773,-0.9378052,0.04144287,-0.703125,-2.59375,0.359375
1696287375858,0.29833984,-0.9456177,0.040222168,-1.265625,-1.84375,0.421875
1696287375904,0.29858398,-0.9404907,0.041931152,-2.5625,-2.578125,0.578125
1696287375979,0.29638672,-0.93707275,0.046081543,-1.875,-2.796875,0.375
1696287375987,0.30273438,-0.94854736,0.054382324,-2.65625,-3.4375,0.546875
1696287376024,0.29956055,-0.9417114,0.047546387,-4.015625,-3.328125,0.375
1696287376052,0.30932617,-0.9495239,0.051452637,-3.609375,-3.28125,0.5625
1696287376098,0.30517578,-0.9378052,0.0770874,-3.625,-3.0,-0.15625
1696287376145,0.30786133,-0.9487915,0.066101074,-3.109375,-3.84375,0.546875
1696287376172,0.3149414,-0.95806885,0.05267334,-6.78125,-3.640625,-0.015625
1696287376221,0.3046875,-0.9458618,0.09320068,-0.640625,-1.1875,0.1875
1696287376247,0.29003906,-0.9307251,0.08538818,-2.578125,-2.140625,-0.15625
1696287376295,0.2993164,-0.94366455,0.07879639,-0.25,-1.15625,0.109375
1696287376340,0.29736328,-0.9277954,0.093444824,1.71875,-1.78125,0.15625
1696287376366,0.30688477,-0.9356079,0.090270996,-2.03125,-2.375,-0.390625
1696287376415,0.2980957,-0.9475708,0.082214355,-2.9375,-2.953125,0.34375
1696287376443,0.30249023,-0.9390259,0.09124756,-1.953125,-0.703125,0.78125
1696287376490,0.30664062,-0.93463135,0.08709717,-2.25,-1.796875,0.25
1696287376532,0.30566406,-0.94122314,0.08734131,-0.671875,-1.546875,-0.015625
1696287376562,0.29833984,-0.94366455,0.09490967,0.203125,-0.6875,0.0625
1696287376610,0.30200195,-0.9414673,0.09246826,-1.0,-1.453125,0.328125
1696287376685,0.29907227,-0.93878174,0.09686279,-2.21875,-2.21875,0.625
1696287376690,0.3034668,-0.9299927,0.101501465,-0.90625,-1.0625,-0.25
1696287376728,0.29833984,-0.94610596,0.097595215,-1.109375,-2.109375,0.578125
1696287376758,0.31567383,-0.944397,0.08416748,-5.34375,-3.453125,-0.46875
1696287376804,0.29541016,-0.93341064,0.113708496,-1.65625,-0.71875,0.265625
1696287376847,0.29589844,-0.944397,0.113708496,-2.515625,-2.1875,0.078125
1696287376877,0.29858398,-0.9338989,0.10760498,-2.609375,-1.234375,0.34375
1696287376923,0.29638672,-0.92755127,0.116882324,-1.09375,-1.5,0.078125
1696287376953,0.30981445,-0.9336548,0.12445068,-3.09375,-2.28125,-0.078125
1696287376999,0.29345703,-0.9421997,0.12249756,-3.359375,-2.109375,0.203125
1696287377043,0.30981445,-0.9402466,0.12347412,-1.5,-1.234375,0.15625
1696287377073,0.30200195,-0.93829346,0.121276855,-3.34375,-1.546875,0.21875
1696287377119,0.3034668,-0.9429321,0.12054443,-4.40625,-2.296875,0.078125
1696287377147,0.30322266,-0.9348755,0.1293335,-3.3125,-1.484375,-0.1875
1696287377194,0.30029297,-0.94073486,0.1281128,-4.578125,-2.140625,-0.5
1696287377240,0.29956055,-0.93096924,0.13372803,-3.296875,-1.296875,-0.625
1696287377267,0.3083496,-0.92755127,0.15057373,-3.296875,-2.03125,-1.71875
1696287377316,0.29516602,-0.9324341,0.1539917,0.875,-0.25,-1.546875
1696287377358,0.30395508,-0.9404907,0.1437378,-3.984375,-2.4375,-2.34375
1696287377388,0.2836914,-0.92755127,0.15740967,-0.6875,0.40625,-1.546875
1696287377435,0.2849121,-0.94537354,0.16253662,-1.40625,-1.359375,-1.4375
1696287377462,0.28198242,-0.94122314,0.15472412,-1.640625,-0.921875,-1.359375
1696287377509,0.27392578,-0.93048096,0.15985107,0.875,-0.15625,-1.671875
1696287377553,0.28466797,-0.9451294,0.15960693,-1.390625,-1.796875,-1.328125
1696287377582,0.28198242,-0.94317627,0.14666748,-1.875,-1.640625,-2.0
1696287377630,0.2836914,-0.94317627,0.15594482,-1.484375,-1.0625,-1.984375
1696287377658,0.2861328,-0.9324341,0.12640381,-1.40625,-0.03125,-1.734375
1696287377704,0.2697754,-0.94317627,0.16156006,-1.953125,-1.078125,-3.0625
1696287377748,0.26611328,-0.9414673,0.16033936,-1.265625,-1.125,-2.765625
1696287377777,0.2626953,-0.9446411,0.16693115,1.390625,0.5,-3.828125
1696287377824,0.2524414,-0.95513916,0.1696167,2.3125,2.34375,-4.390625
1696287377868,0.24560547,-0.9505005,0.16009521,0.765625,1.421875,-2.84375
1696287377897,0.2512207,-0.94781494,0.15350342,2.75,2.4375,-5.28125
1696287377944,0.25708008,-0.9651489,0.14154053,-3.84375,-1.53125,-4.640625
1696287377979,0.24804688,-0.97003174,0.13665771,-1.40625,1.75,-6.28125
1696287378018,0.20263672,-0.95269775,0.13983154,3.96875,3.984375,-2.59375
1696287378063,0.22192383,-0.95635986,0.14959717,-0.3125,2.125,-4.359375
1696287378092,0.19824219,-0.9639282,0.14642334,0.28125,3.640625,-3.640625
1696287378140,0.21069336,-0.9585571,0.14105225,0.859375,3.703125,-3.65625
1696287378167,0.19262695,-0.9536743,0.13397217,1.015625,3.359375,-2.75
1696287378214,0.21386719,-0.99053955,0.13348389,2.75,3.3125,-0.296875
1696287378256,0.20825195,-0.97442627,0.14202881,5.46875,6.1875,-1.84375
1696287378287,0.19238281,-0.9067993,0.14300537,5.984375,6.671875,2.703125
1696287378334,0.22607422,-0.97735596,0.1227417,2.53125,1.40625,-1.5625
1696287378363,0.20141602,-0.9639282,0.10321045,2.03125,3.03125,-1.578125
1696287378409,0.21655273,-0.958313,0.08343506,-2.078125,0.5625,-1.921875
1696287378454,0.2133789,-0.9717407,0.086120605,-2.40625,-0.9375,-1.265625
1696287378483,0.2084961,-0.9627075,0.10858154,-0.296875,0.328125,-1.5
1696287378527,0.20532227,-0.956604,0.09881592,-3.5625,-2.421875,-1.9375
1696287378574,0.19042969,-0.98638916,0.10321045,-2.28125,-1.453125,-0.453125
1696287378602,0.19116211,-0.97613525,0.117614746,-0.28125,-1.5625,-0.421875
1696287378648,0.19750977,-0.97125244,0.11151123,-3.53125,-2.296875,-0.53125
1696287378677,0.18701172,-0.9649048,0.112976074,-1.515625,-1.5625,-0.828125
1696287378724,0.17504883,-0.96954346,0.11981201,-0.328125,-0.921875,0.265625
1696287378769,0.19067383,-0.9776001,0.117370605,-0.171875,-0.59375,1.3125
1696287378798,0.20166016,-0.9685669,0.11883545,2.359375,0.875,0.40625
1696287378846,0.20922852,-0.96954346,0.09320068,0.859375,-0.921875,0.40625
1696287378872,0.2199707,-0.9639282,0.09320068,-0.46875,-3.15625,0.0625
1696287378918,0.18261719,-0.97857666,0.1083374,0.234375,-1.875,-0.890625
1696287378964,0.17675781,-0.97247314,0.10003662,-1.734375,-1.296875,0.3125
1696287378991,0.18676758,-0.9690552,0.09173584,-0.25,-0.796875,0.1875
1696287379041,0.20288086,-0.9578247,0.09637451,-0.84375,0.96875,0.609375
1696287379069,0.21142578,-0.95880127,0.117370605,1.671875,-0.671875,1.171875
1696287379112,0.20483398,-0.96173096,0.09222412,-3.546875,-1.078125,-0.203125
1696287379159,0.19433594,-0.97662354,0.1149292,0.203125,-0.5625,0.46875
1696287379188,0.1965332,-0.9607544,0.11419678,-0.546875,-1.546875,-0.109375
1696287379232,0.2006836,-0.97198486,0.10076904,-2.140625,-2.171875,-0.171875
1696287379279,0.1928711,-0.9649048,0.11468506,0.453125,-0.53125,-0.453125
1696287379308,0.19262695,-0.9678345,0.09320068,-1.890625,-1.890625,0.265625
1696287379355,0.19506836,-0.96832275,0.09954834,-1.390625,-2.203125,0.03125
1696287379383,0.19482422,-0.9639282,0.10296631,0.296875,-0.78125,-0.53125
1696287379430,0.19213867,-0.9763794,0.10247803,0.203125,-0.265625,-0.203125
1696287379474,0.19995117,-0.96881104,0.10247803,0.5625,0.09375,-0.328125
1696287379502,0.19555664,-0.9697876,0.113220215,0.1875,-0.359375,-0.4375
1696287379548,0.19262695,-0.9627075,0.09320068,-0.703125,-0.21875,-0.21875
1696287379577,0.19628906,-0.97613525,0.09490967,-0.015625,-0.625,0.03125
1696287379623,0.19238281,-0.9680786,0.105163574,2.8125,0.859375,-0.828125
1696287379667,0.19604492,-0.96954346,0.089782715,0.265625,-1.734375,-0.234375
1696287379697,0.19458008,-0.9812622,0.08319092,0.78125,0.703125,-0.765625
1696287379744,0.19384766,-0.973938,0.09222412,4.328125,1.265625,-0.625
1696287379772,0.18725586,-0.96539307,0.08807373,-1.03125,-1.25,-0.03125
1696287379818,0.19067383,-0.96710205,0.08148193,-3.765625,-4.453125,1.484375
1696287379864,0.19360352,-0.972229,0.08880615,-3.234375,-4.90625,2.453125
1696287379891,0.20483398,-0.9649048,0.11248779,-0.453125,-2.78125,2.140625
1696287379939,0.19750977,-0.9673462,0.089782715,-2.25,-4.3125,1.6875
1696287379982,0.20605469,-0.9834595,0.09222412,-3.546875,-3.5625,2.078125
1696287380014,0.20239258,-0.97662354,0.11053467,-1.984375,-3.46875,0.90625
1696287380060,0.20581055,-0.9793091,0.105651855,-2.890625,-2.765625,0.859375
1696287380086,0.20336914,-0.97125244,0.11639404,-1.75,-2.015625,0.53125
1696287380134,0.2084961,-0.9619751,0.109069824,-2.84375,-2.40625,1.0625
1696287380179,0.2121582,-0.94488525,0.11102295,-0.96875,-1.6875,0.859375
1696287380207,0.1977539,-0.9639282,0.13006592,1.0625,-1.375,1.421875
1696287380254,0.20776367,-0.9692993,0.11834717,-0.078125,-1.25,1.03125
1696287380282,0.20288086,-0.9714966,0.11395264,-1.953125,-1.734375,1.421875
1696287380329,0.20483398,-0.96588135,0.13031006,0.921875,-1.15625,0.5625
1696287380374,0.22094727,-0.9729614,0.11639404,-2.125,-2.640625,0.71875
1696287380403,0.20410156,-0.9631958,0.12542725,-0.625,-0.78125,0.75
1696287380449,0.20996094,-0.9590454,0.11785889,-2.484375,-2.796875,1.375
1696287380478,0.21313477,-0.9644165,0.11053467,-0.78125,-2.546875,1.484375
1696287380524,0.21801758,-0.96343994,0.11004639,-0.671875,-0.28125,1.671875
1696287380567,0.23291016,-0.96466064,0.12542725,-0.171875,1.734375,1.46875
1696287380596,0.2241211,-0.95562744,0.12322998,-0.359375,0.921875,0.515625
1696287380644,0.2163086,-0.9639282,0.120788574,-1.0,-0.4375,0.3125
1696287380686,0.22509766,-0.96539307,0.11907959,-1.046875,-0.890625,0.953125
1696287380718,0.22973633,-0.9602661,0.11053467,-2.171875,-1.453125,0.859375
1696287380764,0.21704102,-0.96661377,0.1281128,1.078125,-0.71875,0.671875
1696287380792,0.23486328,-0.9644165,0.10687256,-1.484375,-2.234375,1.25
1696287380839,0.2277832,-0.9714966,0.113220215,-2.53125,-1.1875,1.609375
1696287380882,0.22827148,-0.9649048,0.12835693,2.578125,1.875,1.453125
1696287380911,0.23339844,-0.95684814,0.11199951,-1.53125,-2.859375,0.765625
1696287380957,0.23364258,-0.9439087,0.11859131,0.609375,-0.703125,0.1875
1696287380987,0.22485352,-0.95977783,0.109558105,0.90625,-1.125,0.84375
1696287381034,0.23413086,-0.95880127,0.10784912,1.203125,-0.703125,-0.4375
1696287381077,0.23364258,-0.96466064,0.11175537,-0.90625,-1.03125,0.09375
1696287381107,0.23095703,-0.96343994,0.11419678,-1.640625,-1.421875,-0.125
1696287381152,0.23095703,-0.96295166,0.112976074,-1.3125,-1.671875,-0.46875
1696287381196,0.2241211,-0.96759033,0.12615967,-1.15625,-1.34375,-0.125
1696287381228,0.23046875,-0.9656372,0.113708496,-0.53125,-1.109375,-0.375
1696287381273,0.22070312,-0.9590454,0.109558105,-0.59375,-0.296875,-0.28125
1696287381302,0.23144531,-0.9463501,0.113464355,1.078125,-0.140625,-0.828125
1696287381350,0.22460938,-0.973938,0.117126465,1.96875,-0.578125,-0.09375
1696287381394,0.22827148,-0.95635986,0.11517334,-2.609375,-2.046875,-0.09375
1696287381421,0.22949219,-0.97076416,0.12249756,0.5,-0.4375,0.21875
1696287381469,0.22680664,-0.9558716,0.11029053,-0.8125,-1.4375,0.359375
1696287381543,0.23291016,-0.96051025,0.11199951,-0.71875,-1.40625,-0.140625
1696287381551,0.2241211,-0.96466064,0.113220215,0.640625,-0.796875,0.21875
1696287381588,0.23535156,-0.956604,0.12176514,-1.109375,-0.984375,-0.1875
1696287381618,0.22485352,-0.9607544,0.109558105,-1.625,-1.796875,0.140625
1696287381664,0.23095703,-0.9636841,0.12640381,-2.453125,-2.4375,-0.0625
1696287381692,0.22265625,-0.9636841,0.12615967,-1.015625,-1.21875,0.015625
1696287381740,0.22436523,-0.96417236,0.11956787,-1.703125,0.15625,1.03125
1696287381782,0.22583008,-0.95025635,0.12835693,-3.203125,-1.984375,0.09375
1696287381813,0.23046875,-0.9505005,0.11444092,-1.140625,-0.796875,0.375
1696287381859,0.23754883,-0.94854736,0.12445068,-2.546875,-0.96875,-0.3125
1696287381935,0.22338867,-0.96954346,0.13616943,-0.625,-0.140625,0.984375
1696287381940,0.23779297,-0.94537354,0.13446045,-6.5,-2.390625,-0.421875
1696287381978,0.21435547,-0.9702759,0.1383667,-5.671875,-2.703125,0.453125
1696287382007,0.23046875,-0.95025635,0.15203857,-7.109375,-3.34375,0.09375
1696287382053,0.234375,-0.9602661,0.15179443,-8.921875,-4.390625,0.15625
1696287382098,0.2163086,-0.94732666,0.1671753,-4.296875,-1.453125,-0.140625
1696287382127,0.23046875,-0.9534302,0.17791748,-6.984375,-3.734375,-0.015625
1696287382174,0.2241211,-0.9619751,0.17181396,-5.5625,-3.703125,-0.375
1696287382203,0.22875977,-0.9536743,0.19256592,-3.96875,-2.8125,-0.859375
1696287382249,0.22192383,-0.9536743,0.18426514,-5.25,-4.484375,-0.078125
1696287382293,0.22851562,-0.9546509,0.19647217,-4.015625,-3.703125,-0.578125
1696287382321,0.21508789,-0.9487915,0.19940186,-3.390625,-2.953125,-0.59375
1696287382369,0.21582031,-0.9517212,0.2062378,-1.90625,-1.90625,-0.59375
1696287382397,0.21533203,-0.9522095,0.20428467,-3.34375,-2.453125,-0.25
1696287382444,0.20605469,-0.95391846,0.2267456,1.65625,-0.28125,-0.5
1696287382489,0.22167969,-0.95635986,0.19696045,-3.859375,-3.25,0.015625
1696287382516,0.21875,-0.9800415,0.20770264,-1.703125,-3.0625,0.015625
1696287382563,0.2265625,-0.9456177,0.2177124,-1.015625,-2.6875,-0.5625
1696287382639,0.20947266,-0.94903564,0.21282959,-0.515625,-1.28125,-1.234375
1696287382645,0.21240234,-0.9439087,0.21673584,1.265625,-1.203125,-0.84375
1696287382682,0.20532227,-0.9517212,0.19891357,0.984375,-0.28125,0.03125
1696287382714,0.21606445,-0.9680786,0.19769287,-1.234375,-1.734375,-0.015625
1696287382759,0.21362305,-0.9512329,0.2086792,-0.234375,-0.015625,-0.265625
1696287382804,0.20654297,-0.96710205,0.2098999,-0.796875,-0.84375,-0.375
1696287382832,0.20776367,-0.9522095,0.20916748,-0.40625,-0.375,-0.09375
1696287382879,0.2121582,-0.95758057,0.20672607,-2.84375,-1.671875,0.390625
1696287382908,0.21606445,-0.94732666,0.20159912,-5.609375,-3.25,0.046875
1696287382954,0.20703125,-0.95440674,0.2086792,-2.6875,-1.578125,-0.09375
1696287382999,0.19946289,-0.94073486,0.23797607,2.328125,-0.53125,0.171875
1696287383028,0.21313477,-0.9561157,0.20355225,-1.59375,-0.046875,-0.109375
1696287383074,0.1940918,-0.9795532,0.22625732,1.46875,0.125,0.34375
1696287383102,0.21533203,-0.95196533,0.2140503,0.78125,0.421875,-0.1875
1696287383148,0.21289062,-0.95635986,0.19866943,0.15625,-0.046875,-0.5
1696287383194,0.2055664,-0.93634033,0.20843506,-0.1875,-0.1875,-0.03125
1696287383221,0.21069336,-0.9558716,0.20135498,-1.046875,-3.140625,0.625
1696287383270,0.21679688,-0.9602661,0.20037842,-4.21875,-3.296875,0.578125
1696287383314,0.20922852,-0.93878174,0.21453857,0.5,-1.0,0.421875
1696287383342,0.20898438,-0.95147705,0.21966553,0.46875,-0.59375,0.640625
1696287383390,0.20654297,-0.95684814,0.21038818,-1.109375,-1.375,0.796875
1696287383416,0.21020508,-0.9546509,0.21136475,0.109375,-1.046875,0.34375
1696287383464,0.20361328,-0.9517212,0.21209717,1.078125,0.296875,0.484375
1696287383509,0.21508789,-0.95684814,0.21063232,2.671875,1.15625,0.8125
1696287383537,0.2109375,-0.9458618,0.21038818,3.046875,0.515625,0.6875
1696287383585,0.21289062,-0.9463501,0.20599365,-0.015625,-1.921875,0.90625
1696287383612,0.22070312,-0.9570923,0.21307373,-5.390625,-4.296875,0.984375
1696287383659,0.21484375,-0.96173096,0.21746826,-2.34375,-2.515625,1.546875
1696287383704,0.22045898,-0.94415283,0.20672607,-5.09375,-4.125,0.96875
1696287383732,0.22045898,-0.9446411,0.22088623,-2.359375,-2.203125,0.53125
1696287383778,0.2006836,-0.9517212,0.22039795,-0.046875,-1.421875,0.984375
1696287383824,0.22583008,-0.9417114,0.22869873,1.28125,0.796875,0.765625
1696287383851,0.21850586,-0.94415283,0.21380615,2.53125,0.328125,0.109375
1696287383899,0.21850586,-0.95147705,0.21575928,2.65625,0.34375,0.234375
1696287383927,0.2199707,-0.9517212,0.2164917,1.21875,0.28125,0.484375
1696287383974,0.22167969,-0.95196533,0.21990967,0.453125,-0.375,0.296875
1696287384017,0.21948242,-0.9500122,0.2111206,0.09375,-1.453125,0.28125
1696287384047,0.21850586,-0.9507446,0.20257568,0.59375,-0.765625,0.515625
1696287384094,0.23095703,-0.94122314,0.20721436,0.046875,-1.34375,-0.125
1696287384122,0.22216797,-0.9500122,0.20697021,1.34375,-1.15625,0.515625
1696287384168,0.23046875,-0.94732666,0.20477295,-2.4375,-1.953125,-0.515625
1696287384213,0.20996094,-0.9470825,0.19378662,0.046875,-0.53125,-0.4375
1696287384242,0.22827148,-0.96295166,0.21307373,-0.09375,0.46875,-0.21875
1696287384288,0.22094727,-0.93878174,0.20721436,-0.578125,-0.703125,-0.4375
1696287384316,0.21728516,-0.9456177,0.21380615,-0.546875,-1.1875,-0.09375
1696287384364,0.22241211,-0.944397,0.20574951,-1.359375,-0.734375,0.140625
1696287384408,0.22436523,-0.95098877,0.20404053,-1.234375,-2.203125,0.390625
1696287384438,0.21484375,-0.96051025,0.21795654,-0.25,-0.828125,0.234375
1696287384482,0.22021484,-0.9546509,0.20257568,-1.46875,-2.015625,0.1875
1696287384530,0.21923828,-0.95391846,0.20697021,-0.828125,-1.28125,0.078125
1696287384558,0.21801758,-0.94976807,0.21185303,-0.625,-1.328125,0.0
1696287384603,0.21166992,-0.94610596,0.20892334,-0.609375,-0.515625,-0.125
1696287384632,0.21704102,-0.95880127,0.20794678,-0.9375,-1.453125,0.203125
1696287384679,0.22460938,-0.94854736,0.20135498,0.984375,-0.59375,-0.75
1696287384725,0.21777344,-0.96417236,0.21014404,-0.578125,-1.390625,0.203125
1696287384752,0.2265625,-0.9536743,0.21136475,-4.046875,-2.015625,-0.4375
1696287384800,0.21191406,-0.9505005,0.22088623,1.265625,-0.140625,0.109375
1696287384828,0.2277832,-0.95196533,0.21942139,-2.828125,-2.078125,-0.3125
1696287384874,0.21972656,-0.94195557,0.2189331,-1.484375,-1.921875,-0.390625
1696287384919,0.21313477,-0.95318604,0.21282959,-0.65625,-2.1875,0.1875
1696287384947,0.2211914,-0.9522095,0.21966553,-2.40625,-1.421875,0.015625
1696287384995,0.2175293,-0.95147705,0.22137451,-1.21875,-2.03125,0.0
1696287385022,0.22216797,-0.94854736,0.22357178,0.703125,-1.34375,-0.609375
1696287385070,0.20751953,-0.95318604,0.21160889,-1.046875,-1.125,0.28125
1696287385114,0.21704102,-0.9507446,0.22479248,1.015625,0.34375,-0.3125
1696287385143,0.20703125,-0.95269775,0.21942139,0.34375,-0.703125,-0.125
1696287385188,0.21582031,-0.95147705,0.21551514,-0.21875,-0.390625,-0.234375
1696287385231,0.21191406,-0.95318604,0.21575928,-0.1875,-0.53125,0.5625
1696287385262,0.21557617,-0.942688,0.22723389,2.671875,-0.40625,-0.6875
1696287385310,0.20385742,-0.96295166,0.21234131,0.359375,-0.734375,0.390625
1696287385337,0.22851562,-0.9631958,0.21209717,-3.078125,-1.171875,-0.546875
1696287385384,0.20507812,-0.95635986,0.22332764,3.28125,1.171875,0.015625
1696287385429,0.21704102,-0.9546509,0.20721436,-2.296875,-0.78125,0.140625
1696287385457,0.21459961,-0.9470825,0.21014404,-0.4375,-0.40625,-0.28125
1696287385504,0.2097168,-0.95513916,0.21575928,-0.28125,-1.046875,0.375
1696287385532,0.2211914,-0.94732666,0.22454834,-1.875,-1.015625,-0.375
1696287385577,0.20141602,-0.9534302,0.21038818,-1.546875,-1.59375,0.28125
1696287385624,0.21875,-0.9558716,0.22210693,0.21875,-0.65625,-0.640625
1696287385653,0.21557617,-0.9505005,0.21356201,-1.046875,-0.671875,-0.59375
1696287385698,0.21875,-0.9487915,0.23040771,1.625,1.609375,-1.734375
1696287385729,0.19677734,-0.9570923,0.21356201,-0.359375,-1.015625,-0.640625
1696287385773,0.21264648,-0.9541626,0.21063232,-1.828125,-0.484375,-0.390625
1696287385818,0.20581055,-0.95318604,0.21990967,-1.09375,0.125,-0.078125
1696287385847,0.20874023,-0.93878174,0.21331787,0.015625,-0.078125,-0.5
1696287385894,0.19897461,-0.9492798,0.22406006,1.78125,-0.6875,-0.046875
1696287385939,0.21264648,-0.9585571,0.21868896,-3.09375,-1.109375,-0.84375
1696287385968,0.2019043,-0.9558716,0.21453857,2.0625,0.59375,0.09375
1696287386014,0.21411133,-0.9439087,0.20916748,-0.46875,0.859375,-0.640625
1696287386042,0.20654297,-0.9463501,0.20477295,-0.046875,-0.703125,-0.796875
1696287386089,0.19311523,-0.9512329,0.21722412,1.796875,-0.015625,-0.734375
1696287386134,0.19799805,-0.9619751,0.21136475,1.421875,1.375,-0.65625
1696287386163,0.20654297,-0.95928955,0.20184326,-1.109375,-1.1875,-0.046875
1696287386208,0.2006836,-0.9553833,0.21209717,0.125,0.328125,-0.5625
1696287386237,0.19799805,-0.9595337,0.20892334,-0.90625,-0.53125,-0.046875
1696287386284,0.20483398,-0.95391846,0.21160889,0.1875,0.109375,0.140625
1696287386328,0.19433594,-0.94659424,0.20526123,0.15625,-0.5625,0.21875
1696287386358,0.20166016,-0.956604,0.20452881,-1.0,-0.96875,-0.078125
1696287386403,0.20629883,-0.95513916,0.19769287,0.0625,0.296875,0.40625
1696287386433,0.203125,-0.940979,0.20941162,0.953125,0.453125,-0.25
1696287386479,0.20678711,-0.95269775,0.2062378,0.8125,-1.234375,0.484375
1696287386524,0.21362305,-0.9619751,0.19281006,-2.6875,0.0,-0.453125
1696287386552,0.1953125,-0.9553833,0.21844482,2.515625,-0.375,0.3125
1696287386598,0.21508789,-0.96173096,0.19818115,-1.53125,-0.1875,-0.09375
1696287386644,0.19238281,-0.9500122,0.19476318,-0.234375,-0.59375,-0.03125
1696287386672,0.2019043,-0.9553833,0.20672607,0.40625,-0.796875,0.34375
1696287386719,0.20092773,-0.94854736,0.19769287,-1.03125,-0.34375,0.15625
1696287386747,0.19824219,-0.95635986,0.18499756,-0.484375,-1.75,0.125
1696287386793,0.21142578,-0.9558716,0.20526123,0.875,-0.3125,-0.46875
1696287386839,0.20678711,-0.9570923,0.18914795,-0.140625,-1.140625,-0.296875
1696287386867,0.20825195,-0.9468384,0.19696045,1.15625,-0.765625,-0.46875
1696287386912,0.19506836,-0.9500122,0.19622803,2.75,0.359375,-0.390625
1696287386942,0.20239258,-0.96099854,0.17718506,1.625,-0.671875,0.25
1696287386990,0.203125,-0.95684814,0.19256592,1.71875,0.015625,-0.125
1696287387032,0.19726562,-0.95318604,0.1798706,0.40625,-0.59375,-0.3125
1696287387063,0.20043945,-0.9619751,0.19378662,2.390625,-1.484375,0.6875
1696287387107,0.21313477,-0.95880127,0.18109131,-4.859375,-2.046875,-0.15625
1696287387155,0.19458008,-0.9570923,0.18231201,-0.125,-0.328125,1.203125
1696287387181,0.2055664,-0.960022,0.1942749,1.5,1.625,0.375
1696287387229,0.20263672,-0.9561157,0.17523193,0.015625,-0.5,0.09375
1696287387258,0.19702148,-0.9487915,0.18182373,3.28125,1.75,0.0625
1696287387304,0.21020508,-0.95977783,0.1798706,2.171875,0.296875,0.65625
1696287387348,0.20727539,-0.97613525,0.17523193,0.96875,-1.546875,0.0625
1696287387378,0.20166016,-0.95928955,0.16864014,1.703125,0.9375,0.421875
1696287387424,0.19384766,-0.9690552,0.15252686,1.6875,1.640625,0.828125
1696287387500,0.21142578,-0.9661255,0.16693115,3.25,6.21875,1.25
1696287387505,0.20727539,-0.9536743,0.16009521,2.015625,2.859375,0.078125
1696287387544,0.21606445,-0.9763794,0.15447998,1.6875,0.203125,-0.125
1696287387571,0.19726562,-0.956604,0.15130615,1.734375,0.203125,-0.046875
1696287387619,0.2043457,-0.9475708,0.14886475,0.390625,0.0625,-0.078125
1696287387648,0.20581055,-0.97125244,0.14398193,2.5,-0.453125,1.0625
1696287387694,0.21923828,-0.95562744,0.1329956,-2.0,-1.71875,-0.390625
1696287387739,0.20605469,-0.96343994,0.12860107,0.59375,-0.328125,0.734375
1696287387767,0.20996094,-0.9644165,0.14593506,1.6875,-0.671875,-0.1875
1696287387813,0.2175293,-0.9522095,0.124938965,-0.21875,-1.375,0.046875
1696287387890,0.2084961,-0.95928955,0.14129639,0.40625,-1.265625,-0.15625
1696287387893,0.20166016,-0.96221924,0.13250732,-1.296875,-1.59375,0.328125
1696287387932,0.2133789,-0.9656372,0.12689209,-2.015625,-3.03125,0.046875
1696287387962,0.2097168,-0.9649048,0.13983154,-1.421875,-0.921875,0.03125
1696287388010,0.21166992,-0.9685669,0.14544678,-1.90625,-1.5,-0.0625
1696287388053,0.20483398,-0.958313,0.13934326,-2.59375,-1.25,0.03125
1696287388082,0.19824219,-0.9639282,0.14642334,-2.890625,-1.53125,0.125
1696287388129,0.20678711,-0.9607544,0.14422607,-1.9375,0.359375,0.25
1696287388157,0.2121582,-0.956604,0.15789795,-1.734375,-0.1875,-0.109375
1696287388203,0.20947266,-0.9517212,0.1437378,-3.6875,-0.765625,-0.609375
1696287388250,0.21362305,-0.9741821,0.14935303,0.125,0.28125,-0.78125
1696287388277,0.22265625,-0.95758057,0.12884521,-6.671875,-2.953125,-1.65625
1696287388324,0.20996094,-0.95513916,0.15863037,-3.71875,-2.25,-1.6875
1696287388353,0.1652832,-0.97076416,0.18377686,-2.3125,-1.84375,-1.15625
1696287388400,0.20532227,-0.97003174,0.1630249,-7.078125,-4.0625,1.03125
1696287388444,0.19873047,-0.9500122,0.1876831,-5.0625,-3.890625,-0.84375
1696287388473,0.18945312,-0.9507446,0.1828003,-6.609375,-3.640625,0.453125
1696287388519,0.20751953,-0.97662354,0.19647217,-4.21875,-3.15625,1.15625
1696287388593,0.21508789,-0.9492798,0.19256592,-4.015625,-2.421875,0.09375
1696287388598,0.20117188,-0.95928955,0.20452881,-4.046875,-2.796875,0.09375
1696287388637,0.20874023,-0.928772,0.19451904,-4.515625,-2.234375,-0.09375
1696287388668,0.2019043,-0.9619751,0.230896,-3.671875,-2.859375,0.546875
1696287388714,0.1796875,-0.95758057,0.23016357,-4.5,-2.65625,0.65625
1696287388759,0.20263672,-0.9553833,0.22259521,-4.15625,-2.890625,-0.015625
1696287388787,0.20874023,-0.9500122,0.22259521,-2.796875,-1.578125,-0.390625
1696287388834,0.19360352,-0.9470825,0.24407959,2.109375,0.75,-0.140625
1696287388862,0.20483398,-0.9404907,0.21453857,-5.3125,-2.359375,0.484375
1696287388909,0.19628906,-0.9570923,0.22869873,-3.78125,-1.78125,0.5625
1696287388953,0.1887207,-0.95025635,0.23529053,-0.015625,-0.046875,0.828125
1696287388982,0.2163086,-0.9480591,0.2296753,-1.09375,-0.640625,-0.375
1696287389029,0.18286133,-0.95806885,0.2411499,-0.234375,-0.734375,0.0625
1696287389056,0.2043457,-0.9529419,0.22918701,-1.84375,-1.25,0.203125
1696287389104,0.1887207,-0.9541626,0.23162842,-1.78125,-1.484375,-0.046875
1696287389149,0.18847656,-0.94659424,0.22601318,-2.875,-2.734375,0.28125
1696287389178,0.20629883,-0.94976807,0.23138428,-2.5,-1.65625,-0.140625
1696287389224,0.2006836,-0.9421997,0.23602295,-2.171875,-1.125,0.03125
1696287389267,0.20336914,-0.9505005,0.23724365,-0.921875,-1.546875,-0.46875
1696287389297,0.19140625,-0.9578247,0.23626709,-0.5,-0.390625,-0.671875
1696287389343,0.18920898,-0.9536743,0.23529053,1.71875,0.203125,-0.875
1696287389372,0.2006836,-0.9451294,0.24188232,-0.4375,-0.953125,-0.6875
1696287389419,0.18164062,-0.9468384,0.24725342,2.640625,-0.125,0.1875
1696287389464,0.21728516,-0.95196533,0.22039795,-3.875,-2.09375,-0.359375
1696287389493,0.18017578,-0.9644165,0.23944092,1.6875,-0.765625,0.609375
1696287389538,0.20288086,-0.9414673,0.230896,-0.8125,-1.625,-0.265625
1696287389567,0.18896484,-0.95513916,0.2267456,-0.21875,-0.515625,-0.1875
1696287389613,0.18432617,-0.9536743,0.24481201,1.984375,0.0,-0.46875
1696287389659,0.19433594,-0.95318604,0.20648193,-0.84375,-0.734375,0.1875
1696287389688,0.19726562,-0.9602661,0.21820068,0.515625,-1.15625,-0.5
1696287389734,0.19067383,-0.9483032,0.22503662,1.03125,-0.359375,-0.640625
1696287389776,0.1965332,-0.9561157,0.21722412,0.84375,-0.859375,-0.515625
1696287389807,0.18945312,-0.9612427,0.21917725,0.546875,-0.03125,-0.234375
1696287389852,0.19921875,-0.9480591,0.21966553,0.15625,-1.453125,-0.53125
1696287389882,0.18701172,-0.94976807,0.22113037,0.40625,-0.515625,-0.78125
1696287389930,0.19042969,-0.9612427,0.22259521,1.40625,-0.265625,-0.546875
1696287389973,0.17626953,-0.96221924,0.21502686,0.59375,-0.3125,-0.484375
1696287390003,0.1821289,-0.94537354,0.21063232,2.03125,-0.03125,0.203125
1696287390049,0.2006836,-0.9678345,0.20306396,-1.203125,0.1875,-0.90625
1696287390076,0.19702148,-0.944397,0.21868896,2.015625,-0.65625,0.4375
1696287390124,0.1965332,-0.95880127,0.20404053,-1.125,-0.21875,-0.53125
1696287390169,0.18432617,-0.94854736,0.20184326,0.375,-1.03125,-0.328125
1696287390197,0.18896484,-0.9612427,0.21502686,1.09375,-0.875,-0.875
1696287390244,0.19140625,-0.95098877,0.20501709,-0.75,-0.765625,-0.34375
1696287390272,0.18139648,-0.95684814,0.20306396,0.0,-2.34375,-0.953125
1696287390319,0.18481445,-0.9595337,0.20159912,2.1875,0.40625,-0.796875
1696287390363,0.18383789,-0.9573364,0.19329834,3.1875,0.5625,-1.03125
1696287390392,0.18286133,-0.958313,0.19085693,4.171875,1.265625,-0.46875
1696287390437,0.17993164,-0.9624634,0.19476318,3.578125,1.421875,-0.296875
1696287390483,0.17358398,-0.95977783,0.17938232,0.234375,-0.46875,0.625
1696287390512,0.18115234,-0.97320557,0.18133545,1.546875,-1.78125,0.40625
1696287390559,0.18237305,-0.9573364,0.18475342,0.578125,-0.953125,0.0625
1696287390587,0.1899414,-0.9673462,0.18133545,-2.0625,-3.359375,1.140625
1696287390633,0.19262695,-0.9702759,0.18426514,-4.578125,-2.1875,-0.125
1696287390678,0.17871094,-0.97198486,0.1930542,1.578125,-0.5,1.03125
1696287390707,0.18725586,-0.9561157,0.18939209,-2.375,-2.015625,0.453125
1696287390754,0.18334961,-0.96099854,0.18939209,-2.375,-3.171875,0.28125
1696287390782,0.18164062,-0.9595337,0.19500732,-0.609375,-1.84375,0.15625
1696287390830,0.18896484,-0.9512329,0.2033081,-2.140625,-2.21875,0.078125
1696287390873,0.18017578,-0.97003174,0.19012451,-1.65625,-1.53125,0.453125
1696287390902,0.18969727,-0.95513916,0.19915771,-2.125,-1.578125,0.515625
1696287390949,0.18359375,-0.95928955,0.20184326,-1.0,-1.78125,-0.1875
1696287390977,0.18823242,-0.9649048,0.20843506,-0.8125,-0.71875,0.15625
1696287391025,0.18554688,-0.96221924,0.19866943,-0.984375,-1.015625,0.21875
1696287391069,0.19458008,-0.95758057,0.199646,-1.046875,-0.203125,0.328125
1696287391097,0.18530273,-0.9697876,0.19573975,-1.0625,-1.046875,0.625
1696287391144,0.18359375,-0.95562744,0.20452881,2.03125,-0.421875,-0.234375
1696287391189,0.18774414,-0.96295166,0.20233154,-1.484375,-1.640625,0.65625
1696287391218,0.18310547,-0.9685669,0.18719482,-3.421875,-2.984375,0.15625
1696287391266,0.1772461,-0.9607544,0.21234131,1.3125,0.609375,0.46875
1696287391292,0.19091797,-0.96343994,0.19940186,-1.578125,-1.0625,0.375
1696287391338,0.19116211,-0.954895,0.20428467,-0.640625,-0.6875,0.53125
1696287391384,0.18676758,-0.9656372,0.20184326,-0.375,-1.015625,0.046875
1696287391412,0.18798828,-0.96051025,0.19598389,-1.65625,-1.375,0.359375
1696287391460,0.19433594,-0.96173096,0.19769287,-0.4375,-1.0,-0.109375
1696287391487,0.17749023,-0.96417236,0.20648193,-0.46875,-0.515625,0.40625
1696287391534,0.19726562,-0.954895,0.19940186,-0.375,-0.78125,-0.015625
1696287391579,0.17700195,-0.96221924,0.2033081,-0.890625,-0.625,0.453125
1696287391609,0.19140625,-0.9595337,0.2062378,-0.203125,-1.390625,0.25
1696287391654,0.19213867,-0.96417236,0.1954956,-1.5,-1.421875,0.5625
1696287391682,0.19604492,-0.9614868,0.1954956,-2.1875,-2.015625,0.21875
1696287391729,0.18188477,-0.96099854,0.20770264,1.15625,-0.53125,0.078125
1696287391773,0.18969727,-0.97052,0.19012451,-2.515625,-2.34375,0.328125
1696287391802,0.18725586,-0.96832275,0.19647217,-2.796875,-2.203125,0.265625
1696287391848,0.18261719,-0.9553833,0.2111206,0.984375,-0.1875,0.5625
1696287391894,0.20361328,-0.95635986,0.199646,-1.1875,-1.25,-0.015625
1696287391922,0.18237305,-0.960022,0.20037842,-1.3125,-0.71875,0.359375
1696287391970,0.18725586,-0.96295166,0.19866943,-0.8125,-1.328125,0.359375
1696287391996,0.1953125,-0.9631958,0.2033081,0.0625,1.28125,0.28125
1696287392045,0.19750977,-0.956604,0.2074585,1.40625,0.640625,-0.25
1696287392086,0.19335938,-0.9668579,0.20965576,0.078125,-0.546875,0.25
1696287392116,0.19140625,-0.95635986,0.20111084,0.40625,-0.28125,-0.015625
1696287392161,0.19091797,-0.9663696,0.19696045,-0.34375,-0.890625,0.109375
1696287392191,0.18676758,-0.9612427,0.20599365,-0.125,-0.828125,0.0625
1696287392236,0.19238281,-0.96099854,0.19403076,-4.3125,-2.34375,0.515625
1696287392282,0.1928711,-0.9624634,0.20379639,-2.234375,-1.984375,0.21875
1696287392311,0.18725586,-0.954895,0.20721436,2.28125,-0.296875,-0.5625
1696287392356,0.19384766,-0.96588135,0.20037842,-3.5,-3.59375,0.53125
1696287392387,0.1862793,-0.9734497,0.20135498,-4.40625,-2.8125,0.0
1696287392432,0.18359375,-0.9553833,0.21942139,1.15625,0.375,0.203125
1696287392479,0.19116211,-0.95391846,0.20404053,-2.6875,-1.28125,0.234375
1696287392508,0.18554688,-0.9631958,0.20941162,-1.890625,-1.171875,0.09375
1696287392555,0.17700195,-0.9578247,0.21014404,-2.296875,-1.984375,0.546875
1696287392597,0.20019531,-0.96173096,0.21795654,-1.65625,-1.078125,0.078125
1696287392628,0.18896484,-0.9522095,0.20697021,0.015625,-0.546875,-0.1875
1696287392674,0.19433594,-0.9553833,0.21722412,-1.25,-1.4375,0.21875
1696287392702,0.18408203,-0.95269775,0.21258545,-1.09375,-0.5,-0.203125
1696287392749,0.18798828,-0.95806885,0.21551514,-0.71875,-0.484375,0.375
1696287392793,0.18652344,-0.9602661,0.21185303,-1.078125,-0.625,0.078125
1696287392821,0.1875,-0.9570923,0.21942139,-1.34375,-0.625,-0.046875
1696287392870,0.18896484,-0.95440674,0.20794678,-1.296875,-0.234375,0.40625
1696287392897,0.18603516,-0.956604,0.22796631,2.609375,-0.40625,0.21875
1696287392944,0.19165039,-0.95806885,0.2033081,-2.515625,-1.65625,0.234375
1696287392988,0.18383789,-0.97906494,0.215271,-0.40625,-0.453125,0.328125
1696287393016,0.18920898,-0.9495239,0.22283936,0.4375,-0.8125,-0.015625
1696287393064,0.18603516,-0.96343994,0.2086792,-0.71875,-0.015625,-0.265625
1696287393108,0.18310547,-0.944397,0.2177124,-0.0625,-0.40625,-0.109375
1696287393139,0.18676758,-0.9570923,0.2164917,-0.75,-1.28125,0.25
1696287393183,0.19311523,-0.9680786,0.20916748,-0.453125,-1.3125,0.109375
1696287393212,0.19702148,-0.9690552,0.21282959,0.109375,-0.671875,-0.265625
1696287393259,0.19165039,-0.96051025,0.21795654,-0.53125,-0.71875,0.265625
1696287393303,0.18554688,-0.9607544,0.21673584,-1.453125,-0.984375,0.1875
1696287393332,0.18969727,-0.95513916,0.21087646,-1.734375,-1.296875,0.53125
1696287393379,0.1887207,-0.9602661,0.21697998,0.140625,-0.5625,0.03125
1696287393456,0.19506836,-0.95880127,0.22332764,0.4375,-0.375,-0.15625
1696287393462,0.18847656,-0.9631958,0.20404053,-1.5625,-1.28125,0.03125
1696287393498,0.18408203,-0.9561157,0.22406006,1.328125,-0.78125,0.203125
1696287393528,0.19311523,-0.9553833,0.19012451,-3.453125,-1.546875,-0.296875
1696287393573,0.18432617,-0.9636841,0.21575928,1.40625,-1.890625,0.828125
1696287393603,0.1928711,-0.95806885,0.2177124,-1.453125,-1.1875,-0.265625
1696287393650,0.18359375,-0.954895,0.199646,-0.5,-0.578125,-0.03125
1696287393693,0.19042969,-0.9492798,0.21844482,-0.5625,-1.078125,-0.21875
1696287393722,0.18823242,-0.9573364,0.19769287,-1.96875,-0.84375,0.578125
1696287393769,0.19360352,-0.973938,0.21307373,-0.234375,-2.15625,-0.15625
1696287393845,0.19238281,-0.95684814,0.21038818,0.046875,-0.203125,-0.265625
1696287393848,0.18676758,-0.956604,0.2098999,0.53125,-1.40625,-0.21875
1696287393887,0.18896484,-0.9470825,0.20721436,0.84375,-0.6875,-0.375
1696287393917,0.18432617,-0.96051025,0.20111084,1.578125,-1.0,-0.078125
1696287393963,0.1875,-0.95635986,0.19744873,0.890625,-0.59375,-0.140625
1696287394010,0.18066406,-0.9614868,0.19744873,0.65625,-0.75,-0.1875
1696287394037,0.19384766,-0.9627075,0.19403076,-0.578125,-1.484375,-0.15625
1696287394083,0.17895508,-0.95928955,0.21014404,3.90625,-0.21875,0.578125
1696287394112,0.19848633,-0.96343994,0.18182373,-3.59375,-2.328125,-0.453125
1696287394159,0.17895508,-0.9717407,0.19158936,0.359375,-0.640625,1.15625
1696287394202,0.18286133,-0.9534302,0.20013428,1.765625,0.0625,0.390625
1696287394232,0.19311523,-0.97125244,0.18914795,-1.625,-2.125,0.296875
1696287394279,0.18408203,-0.954895,0.19256592,-0.359375,-0.609375,-0.359375
1696287394307,0.18530273,-0.9734497,0.1852417,-2.421875,-2.515625,0.75
1696287394354,0.18408203,-0.97076416,0.18865967,-1.765625,-2.125,-0.125
1696287394398,0.19213867,-0.96051025,0.18988037,0.078125,0.328125,0.15625
1696287394428,0.18969727,-0.96588135,0.1984253,0.109375,-0.421875,-0.140625
1696287394475,0.1887207,-0.96466064,0.19622803,-0.4375,-0.828125,0.15625
1696287394550,0.1875,-0.9607544,0.1942749,-0.484375,-0.625,0.109375
1696287394555,0.18652344,-0.96881104,0.19866943,-0.203125,-0.65625,0.0625
1696287394593,0.19140625,-0.9585571,0.18621826,-0.390625,-0.796875,0.265625
1696287394623,0.19848633,-0.9470825,0.18914795,-1.265625,-1.375,0.03125
1696287394669,0.17797852,-0.956604,0.20428467,2.421875,-0.109375,0.203125
1696287394714,0.18945312,-0.9636841,0.18475342,-4.484375,-3.078125,0.046875
1696287394741,0.17626953,-0.95806885,0.18695068,-1.53125,-1.484375,0.1875
1696287394788,0.18603516,-0.96417236,0.199646,0.21875,-0.09375,0.359375
1696287394817,0.18774414,-0.96466064,0.19085693,-0.765625,-1.453125,0.109375
1696287394864,0.1875,-0.9612427,0.19622803,-1.375,-1.421875,0.46875
1696287394909,0.19018555,-0.96295166,0.18939209,-1.296875,-0.828125,0.078125
1696287394938,0.18237305,-0.96832275,0.18426514,-2.015625,-1.59375,0.15625
1696287394984,0.18334961,-0.9590454,0.18939209,-0.71875,1.34375,0.25
1696287395012,0.19824219,-0.9595337,0.20526123,-1.875,0.828125,0.390625
1696287395059,0.19824219,-0.9663696,0.20257568,-1.609375,-0.296875,-0.671875
1696287395102,0.18261719,-0.96099854,0.1984253,-2.359375,-1.234375,0.625
1696287395133,0.1850586,-0.95147705,0.20013428,-1.0,-0.859375,0.28125
1696287395179,0.19067383,-0.9627075,0.1942749,-1.796875,-1.5,0.671875
1696287395223,0.19946289,-0.9378052,0.20135498,-0.953125,-1.125,0.0625
1696287395252,0.18774414,-0.9639282,0.21600342,1.359375,-0.296875,0.46875
1696287395299,0.18823242,-0.9619751,0.19500732,-4.859375,-1.390625,0.578125
1696287395326,0.19091797,-0.9529419,0.19940186,-0.484375,0.140625,0.5
1696287395374,0.19091797,-0.9612427,0.21160889,-0.421875,0.015625,0.3125
1696287395419,0.19824219,-0.95098877,0.20550537,-1.390625,-1.046875,0.125
1696287395447,0.1796875,-0.9463501,0.2086792,0.71875,-0.359375,0.03125
1696287395494,0.19628906,-0.958313,0.19866943,-1.59375,-1.421875,0.359375
1696287395522,0.1887207,-0.9661255,0.19354248,-1.140625,-1.5625,0.28125
1696287395570,0.19116211,-0.9573364,0.21038818,-0.171875,-0.890625,0.015625
1696287395612,0.18774414,-0.960022,0.2140503,-1.0,-1.1875,0.203125
1696287395642,0.19555664,-0.98028564,0.22259521,-5.25,-0.84375,1.421875
1696287395690,0.17993164,-0.9360962,0.21429443,-13.265625,-6.046875,2.8125
1696287395733,0.19995117,-0.944397,0.21942139,-5.5625,-3.703125,0.140625
1696287395762,0.18603516,-0.954895,0.23065186,-2.1875,-1.765625,0.734375
1696287395810,0.20458984,-0.9429321,0.25238037,-2.109375,-2.140625,-0.453125
1696287395836,0.19067383,-0.94854736,0.25628662,-3.171875,-2.484375,0.9375
1696287395884,0.19360352,-0.9338989,0.24578857,-5.53125,-2.21875,-0.75
1696287395928,0.18432617,-0.94488525,0.2592163,-0.0625,-2.0625,0.625
1696287395958,0.20629883,-0.93878174,0.25604248,-3.328125,-2.4375,-0.15625
1696287396003,0.2019043,-0.9483032,0.2514038,-0.890625,-1.875,-0.75
1696287396032,0.18432617,-0.9446411,0.26239014,-0.71875,-1.296875,0.03125
1696287396080,0.19750977,-0.9439087,0.2538452,-2.59375,-1.484375,-0.296875
1696287396123,0.2019043,-0.9505005,0.26068115,-1.609375,-3.25,-0.203125
1696287396152,0.1850586,-0.9495239,0.26776123,-0.53125,-1.453125,-0.71875
1696287396199,0.19213867,-0.94903564,0.260437,-1.0625,-1.921875,-0.015625
1696287396227,0.18334961,-0.95025635,0.2662964,-0.28125,-1.078125,-0.34375
1696287396275,0.19238281,-0.942688,0.26605225,-0.484375,-0.84375,0.03125
1696287396318,0.1928711,-0.954895,0.2597046,-0.46875,-1.171875,-0.015625
1696287396347,0.19921875,-0.95440674,0.2662964,0.65625,-0.28125,0.34375
1696287396392,0.18334961,-0.94073486,0.2616577,3.59375,0.421875,-0.390625
1696287396440,0.20458984,-0.94610596,0.25482178,0.3125,-1.1875,0.265625
1696287396467,0.18554688,-0.95880127,0.26312256,0.96875,1.140625,-0.96875
1696287396515,0.18310547,-0.9434204,0.260437,0.53125,-0.640625,0.796875
1696287396541,0.18701172,-0.94610596,0.24993896,-0.578125,0.21875,-0.390625
1696287396590,0.18188477,-0.94000244,0.25531006,0.5625,-0.890625,0.046875
1696287396633,0.19824219,-0.94415283,0.2518921,0.9375,-0.9375,-0.21875
1696287396662,0.18847656,-0.960022,0.24554443,0.703125,-0.609375,-0.296875
1696287396709,0.18652344,-0.94488525,0.246521,-0.296875,0.078125,-0.390625
1696287396737,0.18920898,-0.9612427,0.25726318,0.828125,-0.40625,0.125
1696287396784,0.19165039,-0.94659424,0.24066162,-0.171875,-0.25,-0.015625
1696287396829,0.18432617,-0.95025635,0.24359131,-0.140625,-0.578125,-0.21875
1696287396856,0.19165039,-0.9522095,0.24261475,-0.40625,-0.78125,-0.015625
1696287396905,0.18920898,-0.9500122,0.24359131,-0.3125,-0.59375,-0.296875
1696287396932,0.18603516,-0.94488525,0.23675537,-1.65625,-1.1875,-0.046875
1696287396979,0.1821289,-0.93585205,0.25823975,2.359375,-0.40625,-0.21875
1696287397024,0.19604492,-0.9546509,0.22625732,-3.578125,-0.84375,-0.328125
1696287397053,0.1694336,-0.9619751,0.25091553,1.515625,-2.171875,0.609375
1696287397100,0.19360352,-0.94073486,0.23358154,-1.015625,0.046875,-0.1875
1696287397144,0.18359375,-0.9458618,0.22601318,0.890625,-1.046875,-0.46875
1696287397172,0.18896484,-0.9475708,0.2514038,1.0,-0.796875,-0.625
1696287397220,0.18383789,-0.94854736,0.21795654,0.453125,-0.75,-0.15625
1696287397247,0.19458008,-0.9578247,0.21844482,3.125,-1.640625,-0.78125
1696287397295,0.18066406,-0.96051025,0.22454834,3.515625,0.75,-0.78125
1696287397339,0.1899414,-0.9631958,0.22601318,2.859375,-0.03125,-0.609375
1696287397367,0.171875,-0.95806885,0.2230835,1.09375,-0.828125,-0.3125
1696287397415,0.1784668,-0.9590454,0.22113037,-0.328125,-2.34375,-0.28125
1696287397442,0.1743164,-0.95635986,0.21307373,-0.859375,-1.53125,-0.015625
1696287397489,0.18457031,-0.9602661,0.21722412,0.015625,-1.53125,0.3125
1696287397534,0.1850586,-0.9480591,0.21380615,1.234375,-0.453125,-0.421875
1696287397562,0.18359375,-0.956604,0.22064209,1.4375,-1.125,0.828125
1696287397609,0.18798828,-0.96099854,0.2189331,-2.765625,-0.90625,-0.6875
1696287397638,0.16577148,-0.95684814,0.18841553,1.78125,1.765625,0.8125
1696287397683,0.19604492,-0.9697876,0.24090576,4.765625,1.828125,0.53125
1696287397728,0.17578125,-0.944397,0.1774292,4.25,3.640625,0.265625
1696287397756,0.18359375,-0.9541626,0.20281982,8.375,1.140625,-0.5
1696287397804,0.17480469,-0.9702759,0.20184326,1.46875,-0.671875,-0.1875
1696287397850,0.17895508,-0.96759033,0.168396,0.546875,-0.71875,0.296875
1696287397877,0.18945312,-0.9614868,0.18621826,2.125,-0.40625,-0.1875
1696287397924,0.17626953,-0.96832275,0.18621826,-1.203125,-1.8125,0.328125
1696287397952,0.19140625,-0.9649048,0.18475342,-3.453125,-2.25,0.484375
1696287397999,0.17993164,-0.9590454,0.18109131,-2.265625,-1.75,0.75
1696287398044,0.18554688,-0.96417236,0.17669678,-0.84375,-1.203125,0.234375
1696287398071,0.18676758,-0.9661255,0.17694092,-2.03125,-1.03125,1.046875
1696287398118,0.19213867,-0.96466064,0.18792725,0.4375,0.296875,0.1875
1696287398147,0.18286133,-0.9702759,0.16912842,-2.671875,-0.421875,0.984375
1696287398194,0.18847656,-0.9636841,0.17938232,-2.75,-0.953125,0.484375
1696287398239,0.18188477,-0.9644165,0.19671631,0.78125,1.90625,0.234375
1696287398267,0.1965332,-0.960022,0.18206787,-2.734375,-1.40625,0.5
1696287398314,0.19262695,-0.956604,0.19598389,-0.4375,0.0625,-0.046875
1696287398341,0.18847656,-0.97369385,0.18865967,-1.0,-0.984375,0.53125
1696287398389,0.19360352,-0.96173096,0.19378662,-1.125,-0.84375,-0.25
1696287398433,0.1821289,-0.958313,0.18353271,-2.109375,-0.6875,0.375
1696287398462,0.1940918,-0.9590454,0.1984253,-1.0625,-1.0,0.4375
1696287398509,0.1887207,-0.9541626,0.18450928,-1.390625,-0.90625,0.296875
1696287398554,0.1875,-0.956604,0.19671631,0.34375,-0.4375,-0.0625
1696287398582,0.18676758,-0.9656372,0.18865967,-1.125,-1.1875,0.59375
1696287398628,0.2006836,-0.95635986,0.19232178,-0.640625,-0.4375,0.109375
1696287398656,0.1862793,-0.972229,0.1798706,-3.71875,-1.40625,1.359375
1696287398703,0.19482422,-0.96099854,0.21063232,0.625,-0.78125,-0.046875
1696287398747,0.19067383,-0.97369385,0.17889404,-4.421875,-2.34375,1.015625
1696287398776,0.19873047,-0.9546509,0.1984253,-1.125,-1.5625,-0.234375
1696287398823,0.18530273,-0.97491455,0.20648193,0.03125,0.03125,0.859375
1696287398852,0.20214844,-0.9463501,0.19256592,-1.15625,-0.296875,0.34375
1696287398899,0.18432617,-0.9602661,0.19647217,-0.375,-0.59375,0.5
1696287398944,0.19604492,-0.96759033,0.19525146,-0.359375,-1.25,0.46875
1696287398972,0.1977539,-0.960022,0.19036865,-0.296875,-0.46875,0.125
1696287399020,0.19067383,-0.9553833,0.19598389,-0.359375,-0.71875,0.25
1696287399064,0.19140625,-0.9651489,0.19915771,-0.640625,-1.203125,0.0625
1696287399093,0.19848633,-0.95806885,0.19671631,-0.296875,-0.515625,-0.125
1696287399140,0.19140625,-0.960022,0.19036865,-0.453125,-0.890625,0.171875
1696287399167,0.19384766,-0.9624634,0.19207764,-0.5,-0.625,0.4375
1696287399214,0.19311523,-0.956604,0.1864624,-1.03125,-0.515625,0.296875
1696287399259,0.2043457,-0.9651489,0.1930542,-0.828125,-0.890625,0.296875
1696287399287,0.19091797,-0.95562744,0.19891357,1.515625,0.1875,-0.375
1696287399334,0.2043457,-0.9741821,0.18621826,0.25,-0.828125,0.125
1696287399410,0.203125,-0.9690552,0.19281006,-0.34375,-0.359375,-0.90625
1696287399415,0.18310547,-0.9612427,0.20477295,3.625,1.140625,-0.734375
1696287399454,0.19433594,-0.96051025,0.18939209,-0.21875,-0.484375,-0.203125
1696287399483,0.18896484,-0.9541626,0.19378662,1.40625,-1.140625,-0.90625
1696287399528,0.1821289,-0.96881104,0.18841553,-3.796875,-1.859375,0.90625
1696287399557,0.20751953,-0.9529419,0.19329834,-5.296875,-1.1875,-0.359375
1696287399604,0.19091797,-0.9619751,0.19671631,-4.515625,-1.515625,0.203125
1696287399648,0.19384766,-0.9578247,0.2140503,-3.203125,-2.453125,-0.640625
1696287399678,0.18066406,-0.96221924,0.1942749,-6.390625,-3.15625,0.296875
1696287399724,0.1977539,-0.9619751,0.22064209,-1.8125,-0.921875,-0.296875
1696287399799,0.17773438,-0.95269775,0.21697998,-2.90625,-1.34375,0.40625
1696287399802,0.20288086,-0.95806885,0.2086792,-1.953125,-1.140625,0.109375
1696287399843,0.19311523,-0.9717407,0.21575928,-0.3125,-0.015625,0.171875
1696287399872,0.18432617,-0.9429321,0.22650146,-0.453125,-0.09375,-0.078125
1696287399919,0.19458008,-0.95635986,0.22698975,-1.96875,-2.046875,0.921875
1696287399962,0.19824219,-0.9541626,0.2189331,-5.328125,-2.078125,-0.546875
1696287399992,0.18701172,-0.96221924,0.23480225,1.125,-0.921875,0.59375
1696287400039,0.20166016,-0.95513916,0.22918701,-3.984375,-1.796875,0.625
1696287400067,0.18579102,-0.94854736,0.23699951,-0.671875,-0.890625,-0.125
1696287400115,0.1887207,-0.95391846,0.23675537,-1.546875,-1.484375,0.640625
1696287400159,0.19360352,-0.95440674,0.23797607,-2.40625,-0.734375,0.09375
1696287400187,0.19311523,-0.9470825,0.22406006,-2.453125,-2.578125,0.640625
1696287400234,0.18603516,-0.9512329,0.24432373,-1.109375,-0.390625,0.125
1696287400262,0.19946289,-0.9524536,0.24310303,-0.953125,-1.21875,0.015625
1696287400310,0.18310547,-0.960022,0.24359131,-0.234375,-0.5625,0.171875
1696287400353,0.1965332,-0.94976807,0.2399292,-0.0625,-1.671875,0.109375
1696287400383,0.18261719,-0.95513916,0.23846436,-1.203125,-0.796875,-0.046875
1696287400430,0.19946289,-0.958313,0.23577881,-0.34375,-1.359375,0.375
1696287400505,0.1862793,-0.9475708,0.25164795,1.828125,0.140625,0.0625
1696287400511,0.19970703,-0.944397,0.22503662,-0.953125,-1.796875,0.359375
1696287400547,0.19458008,-0.96759033,0.24554443,-0.09375,-1.09375,-0.34375
1696287400577,0.1887207,-0.95098877,0.24578857,1.15625,-1.78125,0.0625
1696287400623,0.18945312,-0.9541626,0.22528076,-1.84375,-1.421875,-0.0625
1696287400670,0.1862793,-0.94122314,0.25335693,-0.125,-1.328125,-0.203125
1696287400698,0.18701172,-0.9534302,0.2374878,0.203125,-0.953125,0.46875
1696287400744,0.20263672,-0.956604,0.23382568,0.703125,-0.453125,-0.3125
1696287400773,0.18383789,-0.956604,0.23773193,-0.484375,-0.859375,-0.125
1696287400818,0.18920898,-0.9602661,0.2453003,-0.078125,-0.890625,-0.28125
1696287400863,0.18774414,-0.94659424,0.2345581,-0.671875,-0.4375,0.046875
1696287400892,0.19213867,-0.95562744,0.23846436,0.109375,-0.984375,-0.109375
1696287400939,0.18774414,-0.9578247,0.23138428,-0.421875,-0.921875,0.03125
1696287400968,0.18969727,-0.9524536,0.23162842,-0.421875,-0.78125,0.0
1696287401011,0.2006836,-0.954895,0.23114014,-1.234375,-1.71875,-0.0625
1696287401058,0.18066406,-0.9446411,0.24920654,3.390625,-0.328125,-0.109375
1696287401087,0.20703125,-0.9529419,0.21551514,-1.71875,-1.4375,-0.515625
1696287401134,0.1796875,-0.96954346,0.23260498,2.640625,-0.640625,0.015625
1696287401178,0.1965332,-0.95318604,0.23114014,1.984375,-0.28125,-0.5
1696287401207,0.19726562,-0.9534302,0.19207764,2.796875,1.15625,-1.015625
1696287401254,0.18847656,-0.96221924,0.21722412,7.671875,4.796875,-1.515625
1696287401283,0.17675781,-0.9602661,0.21600342,5.28125,1.703125,-0.53125
1696287401329,0.1875,-0.9678345,0.20037842,1.515625,-1.234375,-0.28125
1696287401374,0.18139648,-0.96417236,0.18597412,-0.6875,-1.515625,0.0625
1696287401401,0.1862793,-0.9570923,0.19134521,0.609375,0.515625,0.21875
1696287401449,0.1821289,-0.9602661,0.199646,-0.140625,-1.671875,0.3125
1696287401477,0.18481445,-0.9624634,0.20159912,-0.3125,-1.0,0.5
1696287401524,0.1899414,-0.9673462,0.1930542,-0.90625,-1.328125,0.421875
1696287401569,0.18359375,-0.9483032,0.19451904,-0.359375,-1.296875,0.15625
1696287401598,0.18896484,-0.9439087,0.1906128,0.75,-0.625,-0.328125
1696287401643,0.18237305,-0.96099854,0.20135498,3.46875,-0.578125,0.78125
1696287401690,0.19726562,-0.9627075,0.18621826,-3.3125,-2.203125,-0.234375
1696287401718,0.17529297,-0.9661255,0.18084717,-1.234375,-1.71875,0.203125
1696287401764,0.18652344,-0.96343994,0.19818115,-0.078125,-1.078125,0.453125
1696287401793,0.18310547,-0.9595337,0.18963623,-1.421875,-1.6875,0.28125
1696287401838,0.17822266,-0.954895,0.1954956,-1.625,-1.25,0.25
1696287401884,0.1821289,-0.97003174,0.18963623,-2.34375,-2.359375,0.84375
1696287401911,0.19824219,-0.96051025,0.19500732,-4.25,-3.28125,0.53125
1696287401958,0.19360352,-0.9553833,0.20526123,-4.125,-2.546875,0.5
1696287401988,0.1899414,-0.95440674,0.2062378,-3.125,-2.6875,0.234375
1696287402034,0.18530273,-0.958313,0.2111206,-1.453125,-1.34375,-0.390625
1696287402080,0.1809082,-0.954895,0.21868896,-0.375,-1.203125,-0.265625
1696287402107,0.18823242,-0.96173096,0.21234131,-0.078125,-0.953125,-0.28125
1696287402155,0.18286133,-0.96466064,0.20477295,-0.375,-0.484375,0.453125
1696287402183,0.19580078,-0.95684814,0.20721436,1.796875,-0.40625,-0.71875
1696287402230,0.17919922,-0.96710205,0.21380615,0.53125,-0.703125,0.234375
1696287402273,0.19750977,-0.96173096,0.19720459,-3.078125,-1.609375,-0.53125
1696287402304,0.17944336,-0.95684814,0.21185303,0.484375,0.265625,0.265625
1696287402347,0.18041992,-0.9644165,0.21087646,-0.828125,-0.875,0.328125
1696287402392,0.19213867,-0.95269775,0.20306396,-0.765625,-1.046875,0.359375
1696287402422,0.18481445,-0.95513916,0.22235107,1.09375,-0.546875,0.0
1696287402469,0.19213867,-0.95635986,0.21087646,-1.828125,-0.703125,0.625
1696287402498,0.18188477,-0.9627075,0.2086792,-1.765625,-1.921875,0.484375
1696287402545,0.19580078,-0.95928955,0.21673584,-0.09375,-0.96875,0.21875
1696287402588,0.18676758,-0.9602661,0.20916748,-1.125,-1.171875,0.25
1696287402617,0.19042969,-0.9570923,0.20965576,0.15625,-0.515625,-0.1875
1696287402664,0.18457031,-0.9573364,0.2086792,-0.34375,-0.75,0.40625
1696287402692,0.19384766,-0.9553833,0.20941162,0.03125,-0.484375,-0.125
1696287402741,0.18725586,-0.96759033,0.19989014,-2.0625,-1.296875,1.109375
1696287402781,0.19750977,-0.958313,0.2230835,1.75,-0.859375,-0.359375
1696287402813,0.18798828,-0.96832275,0.2008667,-2.046875,-1.8125,0.359375
1696287402860,0.20141602,-0.9741821,0.20672607,-2.359375,-1.828125,-0.265625
1696287402887,0.16894531,-0.9627075,0.22869873,0.71875,0.171875,0.328125
1696287402934,0.19604492,-0.9614868,0.20672607,-2.34375,-1.390625,0.515625
1696287402980,0.1887207,-0.9487915,0.20819092,-0.4375,-1.125,-0.296875
1696287403008,0.18457031,-0.9619751,0.21844482,-0.53125,-1.0,0.515625
1696287403053,0.19458008,-0.95098877,0.21356201,-0.8125,-0.46875,-0.203125
1696287403097,0.18823242,-0.954895,0.2164917,-0.84375,-1.03125,0.15625
1696287403127,0.18041992,-0.9541626,0.22039795,-0.640625,-1.125,0.25
1696287403190,0.19555664,-0.9558716,0.21014404,-0.671875,-1.640625,-0.21875
1696287403201,0.18481445,-0.9639282,0.21502686,-0.84375,-1.8125,0.15625
1696287403249,0.18676758,-0.9522095,0.21014404,-1.453125,-1.453125,0.25
1696287403294,0.19116211,-0.9573364,0.21185303,-1.84375,-1.5,0.109375
1696287403322,0.19018555,-0.9619751,0.21697998,-2.3125,-1.65625,0.265625
1696287403369,0.18554688,-0.9570923,0.23114014,1.21875,-0.90625,0.203125
1696287403396,0.19726562,-0.9741821,0.20721436,-4.78125,-2.75,0.40625
1696287403444,0.18896484,-0.9595337,0.22015381,-2.8125,-2.296875,0.265625
1696287403489,0.18017578,-0.958313,0.23773193,0.84375,-0.71875,0.65625
1696287403517,0.20385742,-0.95098877,0.22723389,-4.0,-2.890625,0.125
1696287403564,0.17553711,-0.9456177,0.23382568,-2.3125,-2.71875,-0.328125
1696287403592,0.1796875,-0.9585571,0.23553467,-3.875,-3.15625,0.90625
1696287403638,0.18847656,-0.95562744,0.24163818,-2.921875,-2.34375,-0.109375
1696287403684,0.17871094,-0.94781494,0.230896,-2.65625,-1.828125,0.1875
1696287403712,0.19604492,-0.9561157,0.24334717,-0.59375,-2.34375,-0.125
1696287403759,0.17260742,-0.95318604,0.24066162,-0.53125,-0.390625,-0.296875
1696287403804,0.1875,-0.95440674,0.24945068,-0.015625,-0.484375,-0.40625
1696287403833,0.18041992,-0.9558716,0.23260498,-0.59375,-0.1875,-0.46875
1696287403879,0.18261719,-0.9500122,0.23431396,0.4375,0.203125,-0.515625
1696287403907,0.18115234,-0.95440674,0.23602295,0.515625,0.59375,-0.796875
1696287403955,0.17773438,-0.9475708,0.25213623,2.71875,0.265625,0.328125
1696287403998,0.19506836,-0.95440674,0.22015381,-3.890625,-1.1875,-0.734375
1696287404027,0.17578125,-0.972229,0.2374878,0.484375,-0.28125,0.484375
1696287404074,0.18261719,-0.9480591,0.23431396,-0.28125,-0.21875,0.046875
1696287404101,0.18261719,-0.96221924,0.22772217,-0.1875,-0.234375,-0.625
1696287404149,0.17016602,-0.9546509,0.24163818,0.859375,-0.296875,-0.03125
1696287404194,0.1821289,-0.9553833,0.22528076,-1.65625,-0.734375,-0.046875
1696287404221,0.1821289,-0.9585571,0.2230835,-0.453125,-1.25,0.265625
1696287404269,0.18579102,-0.95147705,0.22454834,-0.265625,-0.5625,0.015625
1696287404298,0.18432617,-0.9553833,0.23480225,-0.171875,-0.4375,-0.109375
1696287404344,0.18017578,-0.9573364,0.23016357,-0.28125,-0.921875,0.078125
1696287404389,0.1821289,-0.95684814,0.2267456,-0.671875,-0.53125,0.046875
1696287404418,0.18188477,-0.9619751,0.21429443,-0.75,-0.6875,0.171875
1696287404464,0.17700195,-0.9612427,0.22235107,-0.1875,-0.625,0.453125
1696287404510,0.17578125,-0.95562744,0.22821045,2.125,0.0625,-0.0625
1696287404537,0.18530273,-0.9480591,0.22235107,-0.296875,-1.796875,0.390625
1696287404584,0.18725586,-0.96466064,0.22039795,-0.8125,0.65625,-0.390625
1696287404611,0.18017578,-0.9505005,0.23480225,2.171875,-0.640625,0.328125
1696287404660,0.18701172,-0.9570923,0.21746826,-1.90625,-0.078125,-0.15625
1696287404702,0.17163086,-0.9561157,0.22479248,-1.171875,-1.0,0.359375
1696287404733,0.18530273,-0.9458618,0.22821045,0.140625,-0.734375,0.90625
1696287404778,0.19165039,-0.9612427,0.22503662,-0.546875,-0.484375,-0.109375
1696287404807,0.17919922,-0.9612427,0.22161865,-0.734375,-0.828125,-0.03125
1696287404854,0.18676758,-0.9578247,0.22918701,1.03125,-0.484375,-0.4375
1696287404899,0.18579102,-0.9541626,0.22796631,-0.578125,-1.03125,-0.078125
1696287404928,0.17822266,-0.9522095,0.22113037,0.34375,-0.8125,-0.25
1696287404974,0.18188477,-0.9619751,0.21478271,-0.578125,-0.765625,0.296875
1696287405019,0.17456055,-0.95806885,0.22064209,0.609375,-0.859375,-0.125
1696287405048,0.17602539,-0.9492798,0.215271,-1.21875,-0.875,-0.265625
1696287405093,0.17480469,-0.9463501,0.21942139,1.265625,-1.265625,0.28125
1696287405123,0.19555664,-0.9631958,0.20135498,-2.8125,0.078125,-0.4375
1696287405169,0.17211914,-0.9661255,0.22869873,1.3125,-1.375,0.6875
1696287405213,0.19482422,-0.9590454,0.21087646,-1.953125,-0.28125,-0.28125
1696287405242,0.16967773,-0.9529419,0.2218628,-0.125,-0.796875,-0.109375
1696287405289,0.17895508,-0.9529419,0.22991943,0.203125,-0.5,-0.21875
1696287405317,0.19042969,-0.9561157,0.2008667,-1.96875,-1.125,0.015625
1696287405365,0.17944336,-0.95928955,0.2140503,-0.953125,-1.703125,-0.28125
1696287405408,0.18261719,-0.9573364,0.2230835,-0.140625,-0.71875,-0.328125
1696287405436,0.1796875,-0.9512329,0.21673584,-0.125,-0.484375,-0.421875
1696287405483,0.17944336,-0.9507446,0.21014404,0.515625,-0.9375,-0.03125
1696287405513,0.18017578,-0.95928955,0.21014404,1.390625,0.0,-0.359375
1696287405559,0.18481445,-0.96417236,0.20965576,2.03125,-0.265625,-0.6875
1696287405604,0.18432617,-0.96295166,0.1954956,-0.125,-1.171875,-0.125
1696287405632,0.16992188,-0.9585571,0.22406006,5.09375,0.5,-0.265625
1696287405679,0.18188477,-0.9590454,0.2020874,-3.875,-4.8125,-0.296875
1696287405755,0.16699219,-0.96954346,0.19525146,-1.8125,-1.28125,0.3125
1696287405758,0.17871094,-0.9680786,0.22357178,1.765625,-1.65625,0.453125
1696287405798,0.1743164,-0.9651489,0.19818115,-1.390625,-2.359375,0.03125
1696287405827,0.17822266,-0.9602661,0.19207764,-1.390625,-1.140625,0.015625
1696287405874,0.16088867,-0.96661377,0.20477295,-0.671875,-1.921875,0.65625
1696287405917,0.18676758,-0.9668579,0.20257568,-2.375,-2.640625,-0.125
1696287405947,0.17041016,-0.9697876,0.20648193,-0.03125,-0.234375,0.265625
1696287405994,0.1862793,-0.95977783,0.20648193,-0.140625,-0.421875,0.53125
1696287406023,0.17529297,-0.9614868,0.20916748,-0.4375,-0.984375,0.0625
1696287406068,0.171875,-0.9651489,0.21307373,-1.0,-0.09375,0.5
1696287406114,0.17016602,-0.9607544,0.20355225,-0.34375,-0.609375,0.03125
1696287406142,0.17822266,-0.96881104,0.2020874,0.359375,-0.9375,0.1875
1696287406189,0.18066406,-0.9553833,0.21502686,3.5,1.40625,-0.625
1696287406217,0.17407227,-0.9636841,0.20794678,1.046875,-1.484375,0.875
1696287406264,0.18969727,-0.97369385,0.1954956,-4.1875,-2.640625,-0.171875
1696287406308,0.17041016,-0.9636841,0.20062256,-0.296875,-0.40625,0.53125
1696287406337,0.17871094,-0.9651489,0.21185303,0.0625,-0.703125,-0.03125
1696287406383,0.17041016,-0.9614868,0.19256592,-1.703125,-1.65625,0.328125
1696287406460,0.16845703,-0.95758057,0.20770264,-0.40625,-0.15625,0.203125
1696287406465,0.17944336,-0.95391846,0.21136475,-1.21875,-0.90625,0.015625
1696287406503,0.17529297,-0.96099854,0.20062256,-1.875,-1.546875,0.578125
1696287406532,0.17504883,-0.95806885,0.21380615,0.46875,-0.109375,0.015625
1696287406580,0.1809082,-0.96173096,0.20159912,-1.15625,-1.359375,0.53125
1696287406623,0.17993164,-0.96051025,0.21429443,-0.640625,-0.46875,0.046875
1696287406652,0.17626953,-0.9636841,0.21185303,-0.59375,-0.890625,0.25
1696287406701,0.18139648,-0.960022,0.20281982,-1.1875,-0.96875,0.3125
1696287406727,0.17871094,-0.96295166,0.19696045,-2.78125,-1.25,0.6875
1696287406773,0.17895508,-0.96466064,0.21600342,1.15625,1.5625,0.296875
1696287406819,0.18286133,-0.9636841,0.2074585,-3.640625,-2.34375,0.109375
1696287406846,0.16967773,-0.96099854,0.2033081,-2.671875,-1.5625,0.375
1696287406895,0.1772461,-0.9651489,0.22479248,1.015625,-0.328125,0.234375
1696287406923,0.17675781,-0.96295166,0.20941162,-2.09375,-1.171875,0.5625
1696287406969,0.1772461,-0.9585571,0.20599365,-1.15625,-0.71875,0.390625
1696287407014,0.1730957,-0.96954346,0.21160889,-1.328125,-1.921875,0.4375
1696287407042,0.17895508,-0.9651489,0.20843506,-1.484375,-0.8125,0.0625
1696287407090,0.1821289,-0.95269775,0.21185303,-0.25,-0.546875,0.09375
1696287407134,0.18408203,-0.9631958,0.21331787,-0.953125,-1.046875,0.484375
1696287407162,0.17993164,-0.9578247,0.20013428,-1.28125,-0.375,0.3125
1696287407209,0.18432617,-0.96051025,0.2230835,-0.390625,0.53125,0.015625
1696287407237,0.17578125,-0.9541626,0.21038818,-0.65625,-0.3125,0.453125
1696287407284,0.17944336,-0.9536743,0.22064209,-0.296875,-0.765625,-0.09375
1696287407329,0.18139648,-0.9417114,0.21844482,-1.734375,-0.8125,-0.171875
1696287407357,0.17749023,-0.95635986,0.21673584,1.234375,-0.796875,0.3125
1696287407404,0.18554688,-0.9673462,0.19818115,-4.875,-1.984375,0.265625
1696287407432,0.17456055,-0.95635986,0.21746826,-0.578125,-1.125,0.3125
1696287407479,0.18017578,-0.96295166,0.21673584,0.4375,-0.765625,0.125
1696287407524,0.18457031,-0.95513916,0.20843506,-1.8125,-0.953125,0.1875
1696287407552,0.18139648,-0.9512329,0.22381592,-0.84375,0.15625,-0.15625
1696287407597,0.17529297,-0.9573364,0.20819092,-1.53125,-1.453125,0.578125
1696287407644,0.18432617,-0.9636841,0.21600342,-0.765625,-1.546875,-0.109375
1696287407673,0.1772461,-0.95635986,0.21990967,0.53125,-0.1875,-0.015625
1696287407718,0.18847656,-0.9651489,0.21185303,-0.171875,-1.015625,0.046875
1696287407748,0.18286133,-0.956604,0.21844482,-1.125,-1.46875,-0.25
1696287407793,0.16845703,-0.9553833,0.21575928,-2.1875,-1.296875,0.328125
1696287407840,0.18017578,-0.96221924,0.21820068,-1.765625,-0.875,0.703125
1696287407868,0.18408203,-0.9470825,0.20550537,-2.34375,-0.71875,0.09375
1696287407913,0.18676758,-0.96295166,0.20843506,-1.78125,-0.609375,0.203125
1696287407942,0.1796875,-0.95928955,0.22821045,1.359375,-0.390625,-0.09375
1696287407989,0.19091797,-0.9663696,0.2140503,-4.578125,-3.03125,0.375
1696287408034,0.18334961,-0.9663696,0.22039795,-3.828125,-1.9375,-0.453125
1696287408062,0.18017578,-0.9546509,0.23236084,-0.5,-1.453125,0.234375
1696287408110,0.1821289,-0.9534302,0.2255249,-2.09375,-1.0,-0.203125
1696287408137,0.18408203,-0.9573364,0.22601318,-1.078125,-2.28125,0.109375
1696287408183,0.17919922,-0.9631958,0.2345581,-1.71875,-1.484375,0.1875
1696287408229,0.18383789,-0.9585571,0.2243042,-2.234375,-1.140625,0.15625
1696287408258,0.17822266,-0.9541626,0.23236084,-0.28125,-0.921875,-0.21875
1696287408305,0.18676758,-0.9536743,0.23968506,-0.71875,-0.96875,0.15625
1696287408348,0.18237305,-0.95440674,0.22943115,-1.0,-0.90625,0.109375
1696287408377,0.17480469,-0.9507446,0.23016357,-0.609375,-0.75,0.578125
1696287408424,0.18164062,-0.9573364,0.23553467,-0.609375,-1.28125,0.28125
1696287408452,0.18041992,-0.95928955,0.22528076,-1.296875,-0.59375,-0.203125
1696287408500,0.18164062,-0.9570923,0.215271,-1.1875,-1.546875,0.53125
1696287408542,0.16723633,-0.9512329,0.2518921,2.390625,-0.265625,0.203125
1696287408572,0.19165039,-0.9534302,0.21868896,-1.4375,-1.546875,0.296875
1696287408619,0.17382812,-0.9734497,0.23773193,0.28125,-0.625,0.125
1696287408647,0.18530273,-0.95391846,0.23284912,0.234375,-0.328125,0.375
1696287408693,0.18945312,-0.9553833,0.2177124,-1.078125,-0.453125,-0.125
1696287408739,0.17211914,-0.9505005,0.22625732,-0.5625,-0.5625,0.140625
1696287408767,0.18139648,-0.954895,0.23138428,-0.53125,-1.59375,0.390625
1696287408815,0.18945312,-0.9661255,0.22064209,0.328125,-0.3125,-0.21875
1696287408842,0.1850586,-0.9541626,0.22772217,0.0,-0.375,-0.265625
1696287408890,0.18066406,-0.95318604,0.23431396,0.296875,-0.46875,-0.375
1696287408935,0.17919922,-0.958313,0.2296753,-0.328125,-1.0,-0.359375
1696287408962,0.17041016,-0.9524536,0.22796631,0.109375,-0.65625,0.0625
1696287409011,0.17919922,-0.9578247,0.22235107,-0.5,-1.1875,0.015625
1696287409053,0.17749023,-0.956604,0.22039795,-0.71875,-0.0625,-0.0625
1696287409082,0.18896484,-0.96832275,0.22015381,-2.5,-2.171875,0.171875
1696287409129,0.16674805,-0.954895,0.2387085,1.890625,0.078125,0.28125
1696287409157,0.19824219,-0.96417236,0.20648193,-4.984375,-3.0,0.09375
1696287409204,0.16723633,-0.9656372,0.23260498,-1.53125,-1.71875,0.421875
1696287409248,0.18774414,-0.9529419,0.23529053,-0.90625,-0.921875,0.0625
1696287409278,0.17602539,-0.9546509,0.22796631,-0.78125,-0.9375,-0.21875
1696287409324,0.18115234,-0.9570923,0.2374878,-0.46875,-1.375,0.125
1696287409353,0.18115234,-0.95635986,0.22576904,-0.03125,-0.671875,0.15625
1696287409399,0.19360352,-0.9624634,0.21429443,-0.125,-0.921875,-0.6875
1696287409441,0.18286133,-0.95977783,0.22283936,2.46875,0.6875,-0.984375
1696287409472,0.17407227,-0.9578247,0.23406982,2.53125,0.765625,-0.53125
1696287409520,0.18139648,-0.958313,0.21502686,2.078125,-0.796875,-0.546875
1696287409547,0.1730957,-0.9553833,0.21722412,1.484375,-0.875,0.078125
1696287409595,0.16723633,-0.9612427,0.2140503,0.609375,-0.578125,0.265625
1696287409638,0.18164062,-0.9631958,0.21307373,-0.765625,-1.1875,-0.3125
1696287409667,0.17163086,-0.96539307,0.20599365,-0.796875,-0.4375,0.5625
1696287409715,0.1730957,-0.9612427,0.22137451,4.0625,-0.359375,0.28125
1696287409757,0.1730957,-0.96661377,0.19915771,-2.8125,-2.34375,0.578125
1696287409787,0.18164062,-0.9788208,0.20574951,-1.84375,-2.15625,0.234375
1696287409834,0.1640625,-0.9595337,0.21990967,1.640625,-0.046875,0.3125
1696287409862,0.1850586,-0.96051025,0.21258545,-1.9375,-2.3125,0.421875
1696287409910,0.1730957,-0.96099854,0.21063232,-1.59375,-1.796875,0.65625
1696287409954,0.16967773,-0.960022,0.2111206,-2.203125,-2.609375,0.953125
1696287409983,0.18115234,-0.95684814,0.21478271,-4.0625,-2.453125,0.765625
1696287410029,0.17578125,-0.9627075,0.21478271,-2.265625,-2.078125,0.09375
1696287410057,0.17919922,-0.954895,0.22479248,1.59375,-0.53125,-0.03125
1696287410104,0.18237305,-0.9636841,0.22357178,0.640625,-1.296875,-0.109375
1696287410148,0.17749023,-0.95440674,0.2164917,1.734375,-0.03125,-0.328125
1696287410177,0.18408203,-0.96343994,0.21722412,1.046875,-0.609375,0.109375
1696287410224,0.17089844,-0.9614868,0.21160889,-0.484375,-0.9375,0.421875
1696287410252,0.17944336,-0.96417236,0.20672607,-1.21875,-0.921875,0.65625
1696287410315,0.17602539,-0.9561157,0.21136475,3.015625,0.890625,0.046875
1696287410341,0.1796875,-0.96881104,0.20404053,0.4375,-1.015625,0.28125
1696287410372,0.18188477,-0.9639282,0.20135498,-2.078125,-0.359375,0.25
1696287410419,0.18823242,-0.9602661,0.21673584,2.046875,1.421875,0.625
1696287410463,0.18286133,-0.9702759,0.20648193,-1.71875,-0.90625,0.28125
1696287410493,0.18164062,-0.9536743,0.20916748,-0.6875,-0.71875,0.28125
1696287410539,0.17749023,-0.9612427,0.21307373,-0.484375,-0.84375,0.34375
1696287410567,0.1928711,-0.96051025,0.20281982,-1.421875,-0.84375,0.15625
1696287410615,0.18041992,-0.9612427,0.20111084,-0.9375,-0.671875,0.546875
1696287410658,0.18823242,-0.96173096,0.21942139,0.234375,-0.796875,0.0
1696287410687,0.17797852,-0.9614868,0.20159912,-0.375,-0.40625,-0.03125
1696287410734,0.18261719,-0.9585571,0.20843506,-0.390625,-1.03125,0.203125
1696287410762,0.17749023,-0.9624634,0.20672607,-0.015625,-0.375,-0.046875
1696287410809,0.18676758,-0.9631958,0.19891357,-1.28125,-0.5,0.5
1696287410853,0.19091797,-0.96661377,0.20526123,-0.5625,-0.671875,0.1875
1696287410882,0.18652344,-0.95758057,0.20965576,1.140625,0.03125,-0.21875
1696287410930,0.19091797,-0.97003174,0.19329834,-1.484375,-2.3125,0.015625
1696287410975,0.18383789,-0.9612427,0.1954956,-2.609375,-1.28125,-0.015625
1696287411002,0.1850586,-0.96759033,0.21380615,1.3125,-0.265625,0.046875
1696287411049,0.18652344,-0.9590454,0.20159912,-2.609375,-1.1875,0.109375
1696287411076,0.18066406,-0.95025635,0.2074585,-0.984375,-0.859375,0.015625
1696287411124,0.17675781,-0.9685669,0.21478271,-0.0625,-1.28125,0.0
1696287411169,0.19799805,-0.9661255,0.20648193,-1.609375,-1.25,-0.171875
1696287411197,0.17504883,-0.9590454,0.20941162,-1.984375,-1.25,0.40625
1696287411244,0.19335938,-0.9619751,0.22088623,-0.296875,-1.53125,-0.140625
1696287411319,0.17749023,-0.94659424,0.2086792,-1.140625,-0.984375,-0.046875
1696287411324,0.18652344,-0.95928955,0.22039795,0.0,-1.234375,-0.078125
1696287411364,0.17260742,-0.96466064,0.21136475,-1.1875,-1.234375,0.3125
1696287411393,0.1875,-0.96343994,0.21185303,-0.859375,-0.46875,0.3125
1696287411439,0.1809082,-0.97076416,0.20941162,-0.921875,-1.3125,0.265625
1696287411467,0.19140625,-0.9536743,0.21575928,1.578125,-0.78125,-0.203125
1696287411514,0.1743164,-0.97003174,0.21038818,-2.125,-1.890625,0.328125
1696287411557,0.18554688,-0.96173096,0.21087646,-4.5,-2.390625,-0.140625
1696287411587,0.17529297,-0.9585571,0.2374878,0.875,-0.796875,0.03125
1696287411634,0.18115234,-0.9578247,0.21795654,-4.796875,-3.734375,0.375
1696287411709,0.18676758,-0.94854736,0.22332764,-1.734375,-2.328125,-0.171875
1696287411714,0.17504883,-0.9541626,0.2321167,-0.90625,-1.90625,0.203125
1696287411753,0.19116211,-0.9631958,0.23431396,-3.375,-3.25,-0.25
1696287411782,0.1694336,-0.95562744,0.22698975,-1.75,-1.859375,0.0
1696287411830,0.18188477,-0.9546509,0.24627686,1.0625,-0.890625,-0.171875
1696287411873,0.17626953,-0.9522095,0.23431396,-0.9375,-1.21875,-0.078125
1696287411901,0.17407227,-0.95928955,0.2374878,-0.375,-0.984375,0.21875
1696287411949,0.1772461,-0.95635986,0.23480225,-0.53125,-0.3125,-0.046875
1696287411976,0.18237305,-0.96295166,0.22601318,-1.75,-0.03125,0.203125
1696287412024,0.1821289,-0.956604,0.22113037,-0.6875,0.515625,-0.171875
1696287412068,0.17382812,-0.9480591,0.24310303,3.828125,1.296875,-0.875
1696287412096,0.17993164,-0.9578247,0.22650146,-1.546875,-1.0625,0.53125
1696287412144,0.18115234,-0.97320557,0.22796631,-1.3125,0.0625,-0.734375
1696287412171,0.17480469,-0.9517212,0.23895264,1.8125,0.6875,0.484375
1696287412219,0.18383789,-0.9590454,0.22747803,-1.84375,-0.578125,-0.046875
1696287412264,0.1730957,-0.9553833,0.22723389,0.125,-0.203125,-0.359375
1696287412292,0.16723633,-0.960022,0.24383545,-0.21875,-0.640625,0.21875
1696287412336,0.1887207,-0.9624634,0.23358154,-1.46875,-0.3125,-0.078125
1696287412412,0.17626953,-0.9470825,0.22479248,-0.53125,-0.390625,0.296875
1696287412416,0.18017578,-0.9561157,0.22943115,-0.390625,-0.296875,-0.046875
1696287412457,0.1809082,-0.96099854,0.23358154,-1.3125,-1.046875,0.265625
1696287412487,0.17358398,-0.9578247,0.23406982,0.125,-0.65625,0.203125
1696287412532,0.18164062,-0.9631958,0.23358154,-1.328125,-1.390625,0.5
1696287412579,0.1809082,-0.9612427,0.23114014,-1.390625,-0.9375,0.125
1696287412607,0.1875,-0.9558716,0.22064209,-1.1875,-1.265625,0.234375
1696287412654,0.17211914,-0.95147705,0.24383545,2.5625,-0.09375,0.46875
1696287412683,0.18652344,-0.960022,0.20697021,-3.984375,-2.03125,-0.109375
1696287412729,0.17333984,-0.9714966,0.23919678,0.265625,-1.21875,0.671875
1696287412773,0.18139648,-0.9534302,0.23480225,-0.78125,-0.34375,0.046875
1696287412802,0.17919922,-0.9570923,0.22381592,-0.796875,-0.5,0.109375
1696287412848,0.17114258,-0.9451294,0.24285889,-0.265625,-0.28125,-0.1875
1696287412877,0.1772461,-0.96295166,0.22332764,-1.5,-1.546875,0.71875
1696287412924,0.18847656,-0.9590454,0.22576904,-0.203125,-1.640625,-0.078125
1696287412969,0.17578125,-0.95196533,0.23040771,-0.15625,0.078125,-0.09375
1696287412996,0.18554688,-0.96343994,0.22772217,-0.5,-1.09375,0.234375
1696287413042,0.18164062,-0.944397,0.230896,-0.078125,-0.609375,-0.203125
1696287413088,0.17407227,-0.95196533,0.23284912,-0.828125,-1.125,0.484375
1696287413118,0.18457031,-0.9663696,0.22039795,-0.0625,-0.578125,0.109375
1696287413165,0.17700195,-0.96099854,0.23284912,0.015625,-0.671875,0.359375
1696287413192,0.17358398,-0.9534302,0.2333374,0.796875,-0.09375,-0.40625
1696287413238,0.17602539,-0.9534302,0.22528076,-0.234375,-1.609375,0.28125
1696287413283,0.18457031,-0.9636841,0.21795654,-1.515625,0.078125,-0.328125
1696287413312,0.17749023,-0.9561157,0.23309326,1.0625,-1.5625,0.6875
1696287413360,0.19433594,-0.95880127,0.21356201,-1.5,0.21875,-0.28125
1696287413387,0.17749023,-0.94781494,0.22161865,-0.15625,-1.3125,-0.375
1696287413433,0.17602539,-0.9512329,0.22821045,2.296875,0.53125,-0.578125
1696287413479,0.18969727,-0.9578247,0.20404053,0.453125,-0.3125,-0.609375
1696287413507,0.17285156,-0.95928955,0.2243042,0.46875,-1.484375,-0.28125
1696287413555,0.1730957,-0.94610596,0.21551514,0.125,-0.21875,0.234375
1696287413597,0.18652344,-0.95758057,0.21282959,1.984375,-1.25,-0.953125
1696287413628,0.17553711,-0.958313,0.215271,1.765625,-0.484375,-0.03125
1696287413673,0.18115234,-0.96466064,0.2098999,0.21875,-2.0,0.09375
1696287413703,0.17944336,-0.9607544,0.20257568,-0.484375,-2.09375,0.09375
1696287413749,0.17138672,-0.9558716,0.2111206,-0.671875,-1.6875,-0.171875
1696287413792,0.16259766,-0.96466064,0.22381592,3.109375,-0.296875,0.8125
1696287413822,0.17895508,-0.9546509,0.19671631,-4.1875,-4.265625,0.234375
1696287413869,0.16552734,-0.9795532,0.20965576,-2.421875,-2.359375,1.109375
1696287413898,0.17285156,-0.95318604,0.21746826,0.21875,-1.046875,0.96875
1696287413943,0.18725586,-0.95806885,0.20477295,-1.703125,-2.46875,0.40625
1696287413989,0.1809082,-0.95928955,0.20672607,-1.6875,-1.328125,0.1875
1696287414019,0.1772461,-0.9663696,0.21478271,-2.0625,-2.46875,0.421875
1696287414064,0.17773438,-0.9585571,0.21014404,-1.9375,-1.734375,-0.609375
1696287414092,0.17333984,-0.9656372,0.21282959,-1.171875,-0.84375,0.03125
1696287414139,0.17944336,-0.9541626,0.22235107,-0.203125,-0.5,-0.453125
1696287414184,0.1706543,-0.9585571,0.22259521,-0.875,-1.203125,-0.140625
1696287414211,0.17114258,-0.95880127,0.22088623,-1.1875,-0.390625,-0.125
1696287414259,0.17089844,-0.96417236,0.21087646,-1.09375,-0.71875,-0.03125
1696287414304,0.17578125,-0.9656372,0.20965576,-0.5,-0.890625,0.453125
1696287414331,0.17553711,-0.9546509,0.22406006,2.125,0.46875,-0.53125
1696287414380,0.17529297,-0.96343994,0.21746826,0.484375,-0.953125,0.3125
1696287414407,0.18359375,-0.9678345,0.20526123,-2.5625,-1.84375,-0.28125
1696287414454,0.17016602,-0.9614868,0.22357178,2.140625,1.375,0.328125
1696287414497,0.17089844,-0.9697876,0.215271,-1.046875,-0.734375,0.25
1696287414528,0.18139648,-0.9661255,0.21087646,-0.25,-0.9375,-0.125
1696287414573,0.17089844,-0.95806885,0.2177124,0.453125,-0.890625,0.09375
1696287414602,0.18847656,-0.95684814,0.20965576,-2.015625,-1.203125,0.0
1696287414649,0.16796875,-0.95684814,0.20819092,-1.0625,-1.15625,0.375
1696287414694,0.17919922,-0.95977783,0.2218628,-0.0625,-0.703125,0.21875
1696287414723,0.17456055,-0.9607544,0.2111206,-0.65625,-0.96875,-0.03125
1696287414770,0.18041992,-0.96588135,0.2177124,-0.609375,-0.96875,-0.0625
1696287414797,0.16894531,-0.9602661,0.22015381,-0.15625,-0.71875,-0.078125
1696287414843,0.17553711,-0.95098877,0.2062378,-1.265625,-1.109375,0.4375
1696287414889,0.17456055,-0.9505005,0.21600342,-0.921875,-1.03125,-0.4375
1696287414916,0.16503906,-0.9585571,0.22796631,1.71875,-0.453125,0.65625
1696287414963,0.18457031,-0.96759033,0.199646,-4.609375,-2.421875,-0.265625
1696287415008,0.1652832,-0.95318604,0.21942139,0.0,-0.4375,0.375
1696287415039,0.17797852,-0.9692993,0.21746826,0.28125,-0.5625,0.109375
1696287415082,0.18188477,-0.9536743,0.21063232,-1.234375,-0.640625,0.171875
1696287415112,0.1772461,-0.95806885,0.22479248,-0.34375,-0.375,-0.0625
1696287415159,0.17871094,-0.958313,0.20965576,-1.96875,-1.796875,0.265625
1696287415204,0.17089844,-0.9639282,0.20721436,-1.484375,-1.6875,0.078125
1696287415231,0.17236328,-0.9631958,0.21722412,-0.109375,-0.34375,0.03125
1696287415280,0.17602539,-0.95880127,0.22503662,-0.703125,-1.125,0.140625
1696287415307,0.1706543,-0.9595337,0.21575928,-0.046875,-0.265625,0.0625
1696287415354,0.17700195,-0.9678345,0.22332764,0.25,-0.59375,-0.265625
1696287415400,0.17163086,-0.960022,0.2140503,-0.640625,-0.78125,0.21875
1696287415427,0.18164062,-0.9710083,0.21380615,-0.5625,-0.84375,0.453125
1696287415471,0.17797852,-0.94976807,0.22015381,1.171875,0.359375,-0.25
1696287415500,0.18359375,-0.9651489,0.21258545,-1.8125,-2.1875,0.59375
1696287415546,0.18261719,-0.96343994,0.20965576,-3.09375,-0.984375,-1.0625
1696287415591,0.1665039,-0.96295166,0.22821045,1.65625,0.21875,0.65625
1696287415622,0.17700195,-0.9573364,0.2218628,-3.25,-0.921875,-0.046875
1696287415669,0.1665039,-0.9524536,0.21234131,-1.515625,-1.484375,0.296875
1696287415712,0.17016602,-0.9631958,0.23040771,-0.09375,-0.9375,0.296875
1696287415742,0.18334961,-0.956604,0.22113037,-1.890625,-0.640625,-0.421875
1696287415788,0.17138672,-0.9585571,0.21746826,-1.265625,-1.3125,0.40625
1696287415817,0.18408203,-0.9614868,0.23480225,-0.46875,-0.75,-0.03125
1696287415864,0.17797852,-0.9607544,0.21868896,-0.96875,-0.796875,0.15625
1696287415909,0.16992188,-0.95440674,0.22698975,-0.671875,-0.21875,0.359375
1696287415936,0.17675781,-0.9534302,0.22723389,-1.015625,-1.125,0.3125
1696287415983,0.1772461,-0.95098877,0.22235107,-1.09375,-0.359375,0.203125
1696287416011,0.18188477,-0.954895,0.22064209,-2.171875,-1.4375,-0.015625
1696287416056,0.17114258,-0.9561157,0.2399292,1.890625,-0.4375,0.578125
1696287416101,0.19238281,-0.9673462,0.21307373,-4.4375,-1.65625,-0.015625
1696287416131,0.17138672,-0.9690552,0.22650146,0.8125,-0.953125,0.859375
1696287416175,0.1862793,-0.95196533,0.22918701,-1.140625,-1.328125,0.171875
1696287416206,0.17895508,-0.9602661,0.21820068,-0.84375,-0.265625,-0.171875
1696287416252,0.17089844,-0.9505005,0.23187256,-0.265625,-0.71875,0.359375
1696287416297,0.17749023,-0.95806885,0.2111206,-2.375,-1.9375,0.984375
1696287416326,0.18676758,-0.96466064,0.2255249,-1.640625,-1.78125,-0.21875
1696287416372,0.18603516,-0.9546509,0.22772217,-0.390625,-0.171875,0.125
1696287416417,0.18457031,-0.9595337,0.22723389,-0.234375,-1.46875,0.03125
1696287416447,0.17260742,-0.96051025,0.2296753,0.171875,-0.28125,0.015625
1696287416492,0.17895508,-0.9536743,0.22698975,-0.125,-0.625,0.15625
1696287416521,0.17919922,-0.96051025,0.2230835,-0.53125,-0.953125,0.265625
1696287416567,0.18530273,-0.96539307,0.20843506,-0.71875,-1.296875,0.578125
1696287416612,0.1743164,-0.9553833,0.23504639,2.546875,0.0,0.078125
1696287416642,0.18725586,-0.9546509,0.2098999,-1.5625,-2.03125,0.265625
1696287416688,0.17114258,-0.9710083,0.22576904,-1.171875,-0.890625,0.21875
1696287416717,0.18774414,-0.94659424,0.22943115,0.21875,-0.53125,0.421875
1696287416762,0.17895508,-0.96099854,0.21600342,-1.453125,0.0,-0.3125
1696287416807,0.1743164,-0.94976807,0.22894287,-0.53125,-1.15625,0.0
1696287416836,0.1821289,-0.9578247,0.22454834,-0.21875,-0.859375,0.296875
1696287416881,0.18383789,-0.9651489,0.21868896,-0.21875,-0.265625,-0.296875
1696287416927,0.1796875,-0.9602661,0.21600342,-0.71875,-0.4375,0.078125
1696287416956,0.18432617,-0.9639282,0.2255249,0.0625,-0.875,0.046875
1696287417003,0.17944336,-0.95635986,0.22088623,-0.765625,-0.625,-0.25
1696287417033,0.1772461,-0.96173096,0.22698975,-0.21875,-0.859375,0.125
1696287417078,0.18847656,-0.956604,0.21624756,-0.53125,-1.390625,-0.25
1696287417124,0.1772461,-0.9492798,0.230896,0.578125,-0.765625,0.125
1696287417152,0.19921875,-0.95098877,0.21795654,-1.375,-4.703125,-0.828125
1696287417199,0.16821289,-0.9573364,0.2164917,0.5,-2.703125,-0.203125
1696287417275,0.17895508,-0.94903564,0.21282959,-2.734375,-2.109375,-0.859375
1696287417278,0.16381836,-0.97442627,0.22894287,1.46875,-2.1875,0.4375
1696287417317,0.18530273,-0.9561157,0.22845459,-1.59375,-2.1875,-0.5625
1696287417347,0.16601562,-0.95806885,0.21917725,-2.859375,-1.640625,0.09375
1696287417393,0.1730957,-0.9480591,0.2296753,-0.6875,-1.125,-0.265625
1696287417422,0.16723633,-0.95391846,0.22650146,-2.8125,-2.265625,0.1875
1696287417470,0.17480469,-0.96588135,0.2321167,-0.28125,-0.375,-0.234375
1696287417513,0.17089844,-0.9470825,0.22039795,-0.984375,2.09375,0.5625
1696287417541,0.17578125,-0.9636841,0.22576904,1.0625,2.109375,-0.0625
1696287417589,0.17407227,-0.9680786,0.23480225,-1.234375,0.375,0.640625
1696287417665,0.17797852,-0.9636841,0.230896,0.25,-0.34375,0.15625
1696287417668,0.17285156,-0.96661377,0.22210693,-1.59375,-0.21875,0.40625
1696287417708,0.18237305,-0.96466064,0.22772217,0.75,-0.484375,0.625
1696287417737,0.18164062,-0.9585571,0.22406006,0.6875,-1.0625,0.3125
1696287417783,0.17797852,-0.96295166,0.2296753,-1.4375,-2.859375,0.328125
1696287417829,0.18823242,-0.96832275,0.20892334,-4.484375,-2.828125,-0.5
1696287417856,0.16845703,-0.94903564,0.23919678,1.671875,-0.21875,-0.328125
1696287417906,0.16894531,-0.9619751,0.22772217,-3.875,-2.1875,-0.09375
1696287417933,0.17675781,-0.9573364,0.22918701,-1.546875,-1.21875,0.046875
1696287417979,0.16601562,-0.95977783,0.23968506,0.375,-0.59375,-0.03125
1696287418022,0.18432617,-0.9524536,0.23284912,0.046875,0.25,-0.484375
1696287418053,0.17163086,-0.9585571,0.22894287,-0.125,-0.46875,0.0625
1696287418099,0.17529297,-0.9578247,0.23406982,0.125,-0.515625,0.1875
1696287418127,0.17089844,-0.95391846,0.22943115,-0.0625,-0.859375,-0.234375
1696287418174,0.17333984,-0.9546509,0.23602295,-0.375,-0.46875,0.09375
1696287418218,0.17626953,-0.95635986,0.2296753,-0.96875,-1.25,0.0625
1696287418247,0.16992188,-0.95025635,0.23162842,-0.046875,-0.46875,-0.046875
1696287418294,0.17553711,-0.9507446,0.22723389,-1.421875,-0.890625,-0.3125
1696287418370,0.16088867,-0.9507446,0.23822021,1.8125,-0.15625,0.5625
1696287418373,0.1899414,-0.9631958,0.21966553,-4.375,-2.15625,-0.171875
1696287418413,0.16210938,-0.94781494,0.2345581,0.5625,-0.625,0.28125
1696287418442,0.17626953,-0.9656372,0.22943115,-0.578125,-1.296875,0.359375
1696287418489,0.17675781,-0.9456177,0.21820068,-0.921875,-0.765625,-0.0625
1696287418551,0.16113281,-0.9512329,0.23529053,-0.3125,-0.53125,0.0
1696287418561,0.17626953,-0.9619751,0.22650146,-2.25,-1.53125,0.578125
1696287418609,0.17553711,-0.960022,0.22259521,-1.046875,-1.328125,-0.125
1696287418638,0.17041016,-0.95684814,0.2296753,-0.09375,-0.328125,0.421875
1696287418683,0.17797852,-0.9561157,0.2321167,-0.640625,-1.578125,0.25
1696287418728,0.17675781,-0.954895,0.23187256,-0.5625,-0.546875,-0.09375
1696287418757,0.16821289,-0.9546509,0.2333374,-0.859375,-1.078125,0.046875
1696287418804,0.17895508,-0.96661377,0.23065186,-1.953125,-1.546875,0.1875
1696287418832,0.1628418,-0.9573364,0.22698975,-1.765625,-1.453125,0.46875
1696287418880,0.16870117,-0.94537354,0.2345581,1.3125,-0.578125,-0.0625
1696287418922,0.18017578,-0.9680786,0.2387085,-1.5625,-1.859375,0.671875
1696287418952,0.18603516,-0.9522095,0.22747803,-3.859375,-1.34375,-1.03125
1696287418998,0.16992188,-0.956604,0.24310303,1.65625,0.890625,0.5625
1696287419044,0.18847656,-0.9619751,0.24871826,-1.546875,-1.3125,-0.296875
1696287419072,0.16235352,-0.9517212,0.2296753,-0.765625,-0.984375,-0.171875
1696287419119,0.17382812,-0.9590454,0.24090576,0.5625,-0.734375,0.40625
1696287419147,0.18310547,-0.9529419,0.24456787,-1.28125,-0.3125,-0.625
1696287419194,0.1628418,-0.9631958,0.2333374,-0.296875,-0.671875,-0.125
1696287419238,0.17480469,-0.9570923,0.24212646,1.0625,0.5625,-0.515625
1696287419267,0.17456055,-0.9590454,0.23309326,-0.765625,-1.296875,-0.046875
1696287419329,0.17285156,-0.9649048,0.2399292,0.3125,-0.171875,-0.53125
1696287419341,0.16918945,-0.954895,0.23553467,-1.234375,-0.75,-0.21875
1696287419389,0.17211914,-0.9529419,0.23187256,-2.203125,-1.390625,-0.28125
1696287419433,0.17333984,-0.95880127,0.22821045,-3.15625,-2.078125,0.375
