# Sensor type: Respeck
# Activity type: Sitting
# Activity subtype: Normal
# Subject id: s2094833
# Notes: 
timestamp,accel_x,accel_y,accel_z,gyro_x,gyro_y,gyro_z
1696287315601,-0.27563477,-0.7962036,0.590271,-0.6875,-0.390625,0.203125
1696287315646,-0.2770996,-0.79693604,0.588562,-0.5625,-0.75,0.09375
1696287315692,-0.27978516,-0.7998657,0.586853,-1.0625,-0.90625,0.125
1696287315722,-0.2734375,-0.8081665,0.5910034,-0.78125,-0.59375,0.109375
1696287315768,-0.2709961,-0.7984009,0.6005249,-0.125,0.078125,-0.140625
1696287315797,-0.27075195,-0.8088989,0.60614014,0.640625,-1.53125,0.0625
1696287315843,-0.27539062,-0.80059814,0.59490967,-3.203125,-0.953125,-0.453125
1696287315887,-0.27441406,-0.8101196,0.6088257,0.140625,0.859375,-0.84375
1696287315918,-0.28173828,-0.78302,0.5934448,-1.375,-0.984375,-0.734375
1696287315963,-0.28051758,-0.798645,0.5997925,-3.28125,-1.359375,-0.28125
1696287315992,-0.28271484,-0.79693604,0.5993042,-1.71875,-1.40625,-0.25
1696287316037,-0.27319336,-0.78375244,0.5973511,-2.34375,-1.34375,-0.40625
1696287316082,-0.27783203,-0.7959595,0.5946655,-1.453125,-0.640625,0.1875
1696287316113,-0.28027344,-0.7859497,0.59661865,-1.25,-1.25,-0.140625
1696287316157,-0.28710938,-0.78497314,0.6066284,-1.1875,-1.609375,-0.015625
1696287316187,-0.27905273,-0.78863525,0.6012573,-1.53125,-1.609375,0.109375
1696287316232,-0.27685547,-0.7883911,0.6000366,-2.3125,-2.046875,0.609375
1696287316277,-0.28442383,-0.7949829,0.60150146,-1.734375,-2.859375,0.640625
1696287316307,-0.27685547,-0.78741455,0.6066284,-1.21875,-3.15625,0.078125
1696287316352,-0.2783203,-0.7810669,0.6022339,-1.9375,-1.5,0.234375
1696287316397,-0.28051758,-0.7896118,0.6066284,-1.296875,-0.75,0.578125
1696287316427,-0.28930664,-0.78204346,0.6066284,-1.46875,-1.9375,0.25
1696287316474,-0.28173828,-0.7854614,0.62371826,0.734375,-3.234375,0.78125
1696287316502,-0.2849121,-0.7810669,0.5985718,-5.890625,-3.453125,0.8125
1696287316549,-0.2980957,-0.79400635,0.61932373,-0.734375,-2.328125,0.828125
1696287316592,-0.27856445,-0.7649536,0.60565186,-1.5,-3.40625,-0.40625
1696287316622,-0.2836914,-0.78497314,0.60150146,-1.890625,-0.890625,0.625
1696287316668,-0.2824707,-0.7720337,0.6246948,0.53125,-0.59375,0.421875
1696287316698,-0.2788086,-0.7839966,0.60980225,-2.375,-2.546875,0.234375
1696287316744,-0.28686523,-0.7835083,0.6156616,-1.40625,-1.890625,0.671875
1696287316788,-0.28515625,-0.7764282,0.62127686,-1.4375,-2.125,0.390625
1696287316817,-0.28881836,-0.77227783,0.6161499,-1.4375,-2.90625,0.46875
1696287316864,-0.2915039,-0.77471924,0.60858154,-1.953125,-1.90625,0.5
1696287316892,-0.2902832,-0.7827759,0.6100464,-0.703125,-0.5625,0.140625
1696287316940,-0.29003906,-0.77716064,0.6112671,-0.015625,-0.53125,0.15625
1696287316983,-0.28930664,-0.7798462,0.61468506,-0.390625,-0.71875,0.140625
1696287317012,-0.2841797,-0.770813,0.61151123,-1.140625,-0.84375,-0.03125
1696287317059,-0.27856445,-0.77423096,0.60565186,-1.296875,-0.40625,-0.078125
1696287317103,-0.28735352,-0.7793579,0.6334839,1.453125,-0.40625,0.171875
1696287317133,-0.28198242,-0.7737427,0.5939331,-3.0,-2.375,0.015625
1696287317179,-0.2919922,-0.79815674,0.6310425,-0.578125,0.0625,0.421875
1696287317207,-0.29296875,-0.77593994,0.61151123,0.6875,-1.875,-0.546875
1696287317255,-0.29223633,-0.7630005,0.60565186,-0.65625,0.125,-0.375
1696287317299,-0.28881836,-0.77178955,0.6107788,-1.03125,-0.03125,0.296875
1696287317326,-0.2878418,-0.78326416,0.6119995,-0.125,-1.8125,-0.046875
1696287317374,-0.29125977,-0.78619385,0.6149292,-0.34375,-0.0625,0.046875
1696287317402,-0.29174805,-0.77911377,0.6095581,-0.765625,-0.78125,0.03125
1696287317449,-0.2836914,-0.772522,0.61395264,-0.28125,-1.125,-0.09375
1696287317494,-0.28686523,-0.772522,0.6141968,-0.578125,-0.796875,0.078125
1696287317523,-0.29003906,-0.784729,0.61151123,-1.484375,-1.15625,0.59375
1696287317569,-0.2890625,-0.7803345,0.61590576,-1.125,-1.59375,0.0
1696287317597,-0.28735352,-0.77789307,0.61712646,-0.359375,-1.015625,0.015625
1696287317643,-0.28588867,-0.767395,0.61224365,-0.578125,-0.796875,-0.125
1696287317690,-0.28320312,-0.77301025,0.60858154,-0.609375,-0.515625,-0.4375
1696287317717,-0.28149414,-0.767395,0.6022339,-1.046875,0.125,-0.640625
1696287317762,-0.28466797,-0.7703247,0.6310425,3.984375,1.828125,-0.71875
1696287317808,-0.28344727,-0.7803345,0.59368896,-1.71875,-2.0625,-0.1875
1696287317837,-0.28637695,-0.78790283,0.62323,0.03125,-2.703125,1.046875
1696287317883,-0.30541992,-0.7859497,0.61395264,1.28125,-4.953125,0.234375
1696287317912,-0.29858398,-0.76446533,0.60028076,-0.53125,-4.328125,-0.34375
1696287317960,-0.3010254,-0.7805786,0.6000366,0.28125,-2.65625,0.125
1696287318004,-0.28955078,-0.7908325,0.5963745,-0.109375,-5.0625,0.078125
1696287318032,-0.3034668,-0.78863525,0.61346436,-1.828125,-2.96875,0.296875
1696287318079,-0.3100586,-0.7827759,0.5878296,-3.390625,-5.109375,1.65625
1696287318108,-0.30200195,-0.77056885,0.6012573,-0.578125,-3.734375,0.6875
1696287318153,-0.3083496,-0.7805786,0.6022339,-1.875,-2.609375,0.4375
1696287318199,-0.3022461,-0.78009033,0.61102295,-2.875,-2.46875,1.15625
1696287318227,-0.30371094,-0.78302,0.604187,-3.109375,-3.5,1.140625
1696287318273,-0.3005371,-0.7805786,0.6046753,-3.296875,-1.625,0.78125
1696287318302,-0.30078125,-0.7698364,0.621521,-2.390625,-3.546875,1.65625
1696287318350,-0.31420898,-0.77716064,0.6083374,-4.453125,-4.953125,1.28125
1696287318393,-0.31518555,-0.78204346,0.60443115,-3.703125,-2.875,1.0
1696287318423,-0.30029297,-0.77130127,0.6293335,-1.171875,-1.5625,0.296875
1696287318469,-0.3010254,-0.78448486,0.6281128,-1.90625,-2.140625,1.15625
1696287318514,-0.31274414,-0.7671509,0.6039429,-5.765625,-4.15625,1.171875
1696287318542,-0.31323242,-0.7625122,0.6342163,-0.8125,-0.25,0.46875
1696287318590,-0.30493164,-0.7529907,0.6227417,-1.25,-0.390625,0.453125
1696287318616,-0.31396484,-0.76812744,0.63079834,-2.09375,-1.984375,1.234375
1696287318664,-0.31567383,-0.769104,0.62957764,-1.34375,-1.75,1.078125
1696287318709,-0.30151367,-0.7649536,0.63201904,-1.671875,-1.59375,0.53125
1696287318738,-0.31201172,-0.75982666,0.62127686,-2.71875,-1.703125,1.234375
1696287318784,-0.30078125,-0.7600708,0.62323,-3.390625,-3.890625,0.96875
1696287318811,-0.30737305,-0.7583618,0.6403198,-1.546875,-4.171875,0.546875
1696287318859,-0.30981445,-0.7617798,0.6329956,-2.09375,-1.78125,0.140625
1696287318902,-0.30566406,-0.7554321,0.6273804,-1.65625,-1.015625,0.375
1696287318933,-0.3112793,-0.7571411,0.6312866,-0.578125,-1.203125,0.234375
1696287318979,-0.31323242,-0.76031494,0.6329956,-0.640625,-0.828125,0.46875
1696287319024,-0.31225586,-0.74884033,0.63323975,-1.390625,-0.375,0.359375
1696287319052,-0.31030273,-0.76104736,0.6273804,-1.640625,-1.421875,0.640625
1696287319099,-0.31103516,-0.75982666,0.63397217,0.578125,-0.34375,-0.296875
1696287319128,-0.30249023,-0.77349854,0.6300659,-0.65625,-1.09375,0.859375
1696287319174,-0.31469727,-0.7493286,0.6190796,-3.453125,-2.125,0.140625
1696287319234,-0.3100586,-0.7583618,0.6390991,3.0,0.984375,0.015625
1696287319246,-0.30493164,-0.7527466,0.6312866,0.140625,-0.421875,0.171875
1696287319295,-0.31030273,-0.76690674,0.63201904,-0.75,-0.984375,0.390625
1696287319322,-0.31762695,-0.7703247,0.6288452,0.625,-0.640625,0.1875
1696287319370,-0.29223633,-0.75738525,0.63812256,-0.4375,-1.078125,-0.171875
1696287319413,-0.31103516,-0.7642212,0.6300659,-1.234375,-0.734375,0.640625
1696287319442,-0.3071289,-0.7564087,0.6286011,-0.484375,-0.921875,0.0
1696287319490,-0.3076172,-0.7576294,0.6334839,-0.84375,-0.953125,0.125
1696287319517,-0.31591797,-0.76104736,0.62957764,-1.109375,-0.5625,0.125
1696287319564,-0.30786133,-0.75860596,0.6359253,-1.078125,-0.65625,0.21875
1696287319607,-0.30615234,-0.7649536,0.635437,-0.515625,-0.78125,0.234375
1696287319638,-0.3100586,-0.7576294,0.63690186,0.109375,-0.359375,0.390625
1696287319683,-0.30737305,-0.75787354,0.62298584,0.046875,-0.09375,0.359375
1696287319728,-0.31347656,-0.7686157,0.6312866,-0.71875,-0.125,0.46875
1696287319757,-0.29711914,-0.75982666,0.63812256,1.234375,0.265625,-0.03125
1696287319804,-0.2878418,-0.77716064,0.6329956,0.140625,-0.90625,0.421875
1696287319832,-0.30566406,-0.7493286,0.6256714,-4.0625,-1.78125,0.03125
1696287319879,-0.30297852,-0.7659302,0.6408081,1.078125,-0.21875,0.140625
1696287319923,-0.30371094,-0.7510376,0.62786865,-1.375,-0.8125,0.09375
1696287319953,-0.30908203,-0.7683716,0.63494873,-2.09375,-0.484375,0.546875
1696287319999,-0.2956543,-0.7571411,0.63323975,0.578125,-1.375,0.234375
1696287320027,-0.29101562,-0.7559204,0.63812256,-0.5625,-0.9375,0.15625
1696287320074,-0.31152344,-0.76641846,0.635437,-0.6875,-0.625,0.4375
1696287320118,-0.30029297,-0.7608032,0.6312866,0.046875,-1.140625,-0.109375
1696287320147,-0.2993164,-0.7605591,0.6317749,-0.8125,-0.953125,0.078125
1696287320194,-0.30078125,-0.7564087,0.6312866,-0.859375,-0.71875,0.171875
1696287320222,-0.30126953,-0.7605591,0.6300659,-0.609375,-0.9375,0.1875
1696287320270,-0.30444336,-0.7632446,0.635437,-0.453125,-0.828125,0.140625
1696287320313,-0.30419922,-0.76153564,0.6317749,-0.65625,-0.34375,0.03125
1696287320343,-0.3005371,-0.756897,0.6325073,-1.0,-0.46875,-0.046875
1696287320390,-0.29760742,-0.7654419,0.6286011,-1.515625,-1.015625,-0.125
1696287320465,-0.30249023,-0.76031494,0.64227295,0.53125,0.46875,0.15625
1696287320468,-0.29052734,-0.77838135,0.62420654,-1.6875,-1.828125,0.59375
1696287320507,-0.31152344,-0.75616455,0.63812256,-3.546875,-0.234375,-0.359375
1696287320538,-0.30078125,-0.7630005,0.6469116,0.890625,0.953125,-0.140625
1696287320583,-0.29614258,-0.7398071,0.63616943,-2.859375,-0.453125,-0.078125
1696287320629,-0.29882812,-0.769104,0.64959717,-2.9375,0.546875,0.171875
1696287320660,-0.29833984,-0.7632446,0.6347046,-1.75,-1.421875,0.34375
1696287320704,-0.28442383,-0.7546997,0.65057373,-2.78125,-0.71875,-0.109375
1696287320733,-0.30419922,-0.7617798,0.6466675,-1.265625,-0.328125,0.40625
1696287320777,-0.30273438,-0.7473755,0.6491089,-0.5,-1.3125,-0.296875
1696287320823,-0.30615234,-0.7444458,0.64056396,-0.40625,-1.234375,-0.171875
1696287320852,-0.30297852,-0.7510376,0.64593506,-0.4375,-0.828125,0.1875
1696287320899,-0.29785156,-0.7564087,0.649353,-0.453125,-0.390625,0.46875
1696287320927,-0.29614258,-0.7539673,0.6461792,-0.90625,-0.640625,0.5625
1696287320975,-0.28881836,-0.7510376,0.6437378,-1.453125,-1.328125,0.453125
1696287321017,-0.2956543,-0.74298096,0.64715576,-1.796875,-1.09375,0.484375
1696287321047,-0.29370117,-0.75445557,0.6532593,-2.765625,-2.0,0.5625
1696287321094,-0.30517578,-0.7485962,0.66400146,1.421875,-0.40625,0.984375
1696287321140,-0.28344727,-0.75567627,0.62298584,-6.171875,-3.96875,0.5625
1696287321166,-0.30639648,-0.755188,0.65545654,-1.421875,-1.875,0.515625
1696287321214,-0.2939453,-0.74591064,0.6557007,0.625,-1.640625,0.015625
1696287321243,-0.29370117,-0.739563,0.6383667,-1.765625,-0.296875,-0.046875
1696287321289,-0.30029297,-0.7439575,0.6547241,-0.296875,-0.515625,0.203125
1696287321333,-0.29614258,-0.753479,0.6498413,-0.609375,-1.859375,0.625
1696287321362,-0.29760742,-0.7493286,0.65838623,-0.359375,-0.84375,0.15625
1696287321410,-0.3005371,-0.7485962,0.64886475,-0.671875,-0.953125,0.46875
1696287321437,-0.2980957,-0.7503052,0.6515503,-0.3125,-0.875,0.046875
1696287321484,-0.29541016,-0.7485962,0.6552124,-1.078125,-1.484375,0.125
1696287321527,-0.30322266,-0.7461548,0.652771,-1.046875,-1.171875,0.4375
1696287321558,-0.30297852,-0.74176025,0.6473999,-0.78125,-0.671875,0.0625
1696287321603,-0.30566406,-0.7476196,0.652771,-0.484375,-0.25,-0.1875
1696287321648,-0.29052734,-0.74835205,0.652771,-0.609375,-0.59375,-0.265625
1696287321676,-0.29492188,-0.7312622,0.6503296,-1.78125,-0.828125,-0.09375
1696287321724,-0.30273438,-0.7432251,0.666687,1.75,-0.28125,0.53125
1696287321752,-0.2841797,-0.74786377,0.6251831,-4.703125,-3.03125,-0.0625
1696287321799,-0.31640625,-0.7542114,0.6593628,0.515625,-0.28125,0.234375
1696287321843,-0.28466797,-0.7346802,0.6491089,0.109375,-1.640625,-0.234375
1696287321872,-0.30029297,-0.7312622,0.6461792,-0.96875,0.46875,-0.21875
1696287321919,-0.29760742,-0.75006104,0.6539917,-0.734375,-0.484375,-0.078125
1696287321947,-0.29492188,-0.7542114,0.64178467,-1.140625,-0.546875,-0.21875
1696287321994,-0.29858398,-0.75250244,0.65618896,0.828125,1.125,-0.71875
1696287322038,-0.2944336,-0.74053955,0.6515503,0.9375,1.203125,-1.0
1696287322066,-0.29882812,-0.7503052,0.64959717,0.65625,-0.09375,-0.484375
1696287322115,-0.30444336,-0.7463989,0.65667725,-0.578125,-0.328125,-0.03125
1696287322142,-0.29345703,-0.74884033,0.6478882,-0.171875,0.265625,-0.21875
1696287322189,-0.30029297,-0.7490845,0.6456909,0.046875,-0.328125,0.234375
1696287322232,-0.29711914,-0.75323486,0.6481323,-0.234375,-1.0,-0.015625
1696287322262,-0.29589844,-0.7432251,0.6442261,-0.046875,-0.328125,0.109375
1696287322309,-0.29101562,-0.7398071,0.65301514,-0.890625,-0.515625,0.125
1696287322353,-0.296875,-0.7476196,0.66448975,1.53125,-1.25,0.5
1696287322382,-0.29492188,-0.7503052,0.6444702,-3.375,-0.609375,-0.328125
1696287322428,-0.30200195,-0.7593384,0.6552124,1.328125,-0.875,0.34375
1696287322456,-0.28466797,-0.7407837,0.64056396,-0.953125,-1.734375,-0.125
1696287322504,-0.29614258,-0.74102783,0.6403198,-0.796875,0.203125,0.125
1696287322548,-0.29785156,-0.74420166,0.65423584,-0.296875,-1.015625,-0.03125
1696287322577,-0.29125977,-0.7583618,0.63616943,-1.8125,-1.390625,0.265625
1696287322624,-0.30664062,-0.7515259,0.65057373,-0.5625,-0.515625,0.203125
1696287322652,-0.29052734,-0.74591064,0.6564331,0.28125,-0.640625,-0.078125
1696287322699,-0.2878418,-0.74591064,0.64471436,-0.359375,-1.078125,-0.125
1696287322743,-0.29101562,-0.7510376,0.6449585,-1.25,-0.640625,0.21875
1696287322772,-0.2932129,-0.75738525,0.65252686,-0.734375,-0.953125,0.390625
1696287322819,-0.29492188,-0.75079346,0.6473999,-0.390625,-1.203125,0.1875
1696287322847,-0.29638672,-0.74346924,0.6408081,-1.125,-0.9375,0.0625
1696287322894,-0.2956543,-0.76031494,0.64715576,-0.65625,-0.640625,0.15625
1696287322939,-0.29345703,-0.7383423,0.6598511,0.8125,-0.359375,0.15625
1696287322968,-0.28588867,-0.7554321,0.63201904,-2.03125,-2.640625,0.328125
1696287323014,-0.30786133,-0.7608032,0.6569214,-1.53125,-0.84375,0.625
1696287323057,-0.2932129,-0.7505493,0.6559448,0.984375,-1.46875,-0.265625
1696287323087,-0.28979492,-0.74102783,0.64178467,-0.65625,-0.203125,-0.328125
1696287323134,-0.2956543,-0.75250244,0.65374756,0.046875,0.203125,-0.03125
1696287323162,-0.3005371,-0.75567627,0.6564331,1.5625,-0.875,-0.109375
1696287323209,-0.29223633,-0.74713135,0.6498413,-1.21875,-0.171875,-0.65625
1696287323254,-0.30126953,-0.7498169,0.6329956,-0.3125,0.109375,-0.375
1696287323282,-0.2861328,-0.7349243,0.64178467,2.40625,0.4375,-1.375
1696287323329,-0.28393555,-0.7505493,0.63812256,2.15625,1.1875,-1.078125
1696287323357,-0.2866211,-0.7510376,0.63690186,1.109375,0.84375,-0.328125
1696287323404,-0.30151367,-0.7654419,0.64715576,0.859375,0.359375,-0.171875
1696287323450,-0.29833984,-0.7605591,0.6408081,0.96875,-0.9375,-0.078125
1696287323477,-0.29516602,-0.75909424,0.63568115,-0.609375,-1.203125,0.0625
1696287323524,-0.2919922,-0.76348877,0.6432495,-0.71875,-1.53125,0.453125
1696287323551,-0.30297852,-0.7571411,0.6564331,1.046875,-1.5,0.734375
1696287323598,-0.28076172,-0.7764282,0.6347046,-3.53125,-6.015625,1.265625
1696287323644,-0.29492188,-0.7617798,0.62176514,-6.65625,-7.734375,1.265625
1696287323672,-0.30297852,-0.7559204,0.66033936,-0.3125,-1.734375,0.8125
1696287323719,-0.30078125,-0.74005127,0.64227295,-2.109375,-2.71875,0.75
1696287323762,-0.30493164,-0.76226807,0.63323975,-3.28125,-2.9375,0.734375
1696287323792,-0.30541992,-0.74835205,0.64471436,0.078125,-1.890625,0.5
1696287323840,-0.28515625,-0.73883057,0.6581421,-3.078125,-2.96875,1.328125
1696287323866,-0.31591797,-0.7630005,0.6305542,-2.09375,-1.65625,1.15625
1696287323914,-0.30566406,-0.74786377,0.64227295,-0.25,-1.375,-0.03125
1696287323959,-0.2939453,-0.7498169,0.6461792,-1.1875,-2.15625,0.21875
1696287323987,-0.3005371,-0.7461548,0.64471436,-1.90625,-0.96875,0.28125
1696287324035,-0.3059082,-0.75201416,0.6456909,-0.5,-0.671875,0.21875
1696287324062,-0.30273438,-0.74591064,0.64959717,-0.109375,-1.75,0.15625
1696287324109,-0.3034668,-0.75372314,0.64398193,-1.390625,-1.09375,-0.015625
1696287324152,-0.30737305,-0.7498169,0.64276123,-1.140625,-1.359375,-0.046875
1696287324181,-0.29785156,-0.74884033,0.65960693,1.953125,-0.859375,-0.703125
1696287324229,-0.30541992,-0.7630005,0.6520386,-1.65625,-3.71875,0.125
1696287324258,-0.3125,-0.7481079,0.62371826,-5.453125,-3.890625,0.359375
1696287324304,-0.30688477,-0.74005127,0.651062,0.40625,-0.84375,-0.390625
1696287324348,-0.31054688,-0.7407837,0.65448,-0.453125,-0.28125,0.21875
1696287324378,-0.3137207,-0.7485962,0.64886475,-2.25,-1.59375,0.5625
1696287324424,-0.30200195,-0.7461548,0.64642334,-0.59375,-1.484375,-0.09375
1696287324467,-0.30322266,-0.7390747,0.65423584,-0.65625,-0.984375,-0.15625
1696287324497,-0.31323242,-0.74053955,0.64593506,-1.625,-1.53125,0.5
1696287324544,-0.30200195,-0.74591064,0.64959717,-0.5,-1.078125,-0.125
1696287324571,-0.3059082,-0.7424927,0.6481323,-0.71875,-0.703125,-0.078125
1696287324619,-0.31445312,-0.7427368,0.64764404,-0.875,-0.4375,-0.015625
1696287324664,-0.30566406,-0.7398071,0.65545654,-0.75,-0.578125,0.21875
1696287324691,-0.3076172,-0.7456665,0.6576538,-0.546875,-1.0,0.21875
1696287324739,-0.30322266,-0.739563,0.6430054,-1.703125,-0.703125,0.140625
1696287324783,-0.31152344,-0.7444458,0.64959717,-0.890625,-0.984375,0.1875
1696287324812,-0.30517578,-0.7383423,0.66204834,1.03125,0.046875,-0.640625
1696287324858,-0.30126953,-0.7600708,0.6588745,0.09375,-1.234375,0.484375
1696287324887,-0.31591797,-0.7346802,0.64178467,-4.15625,-2.0625,0.109375
1696287324934,-0.30688477,-0.7505493,0.6715698,1.515625,0.453125,-0.078125
1696287324977,-0.3017578,-0.7337036,0.65130615,-0.34375,-0.828125,-0.015625
1696287325009,-0.3161621,-0.7463989,0.65789795,-1.90625,-0.4375,0.375
1696287325055,-0.30541992,-0.736145,0.65252686,0.71875,-0.890625,0.125
1696287325082,-0.2998047,-0.7319946,0.6571655,-0.265625,-0.8125,-0.15625
1696287325130,-0.31225586,-0.7476196,0.6522827,-0.890625,-0.4375,0.65625
1696287325174,-0.30322266,-0.73931885,0.6564331,0.21875,-0.71875,-0.109375
1696287325202,-0.3083496,-0.7366333,0.6515503,-0.046875,-0.328125,-0.125
1696287325249,-0.30615234,-0.7398071,0.65545654,-0.4375,0.375,-0.03125
1696287325276,-0.3059082,-0.7490845,0.6576538,-0.0625,-0.453125,-0.046875
1696287325324,-0.3046875,-0.74420166,0.65130615,-0.421875,-0.78125,0.1875
1696287325369,-0.30273438,-0.74176025,0.6461792,-1.25,-0.59375,0.109375
1696287325397,-0.3083496,-0.7432251,0.65789795,-0.53125,-0.75,-0.03125
1696287325460,-0.3034668,-0.7366333,0.6659546,0.421875,0.140625,-0.515625
1696287325471,-0.3095703,-0.7630005,0.6637573,0.375,-0.859375,0.65625
1696287325519,-0.30859375,-0.7334595,0.652771,-3.3125,-1.796875,-0.234375
1696287325564,-0.3083496,-0.7463989,0.66156006,2.0,0.40625,0.015625
1696287325592,-0.30566406,-0.7305298,0.6395874,-0.859375,-0.640625,0.109375
1696287325639,-0.31030273,-0.7476196,0.6630249,-1.46875,0.0,0.296875
1696287325683,-0.30151367,-0.74786377,0.6564331,1.140625,-0.5625,-0.015625
1696287325712,-0.3005371,-0.74298096,0.65911865,-0.296875,-1.03125,0.0625
1696287325759,-0.30615234,-0.74102783,0.6569214,-0.5625,-0.5,0.375
1696287325787,-0.30029297,-0.739563,0.651062,0.34375,-0.984375,0.03125
1696287325834,-0.30029297,-0.73760986,0.66082764,-0.171875,-1.03125,0.078125
1696287325879,-0.30810547,-0.7449341,0.66033936,-0.53125,0.15625,0.421875
1696287325907,-0.3034668,-0.7461548,0.66741943,-0.078125,0.0,0.296875
1696287325954,-0.3046875,-0.75372314,0.6547241,-1.546875,0.546875,0.21875
1696287325982,-0.31201172,-0.7424927,0.6600952,-2.328125,-0.421875,0.390625
1696287326030,-0.29492188,-0.7432251,0.65301514,-1.53125,-1.828125,0.171875
1696287326090,-0.28515625,-0.73760986,0.6635132,0.0625,-0.375,0.046875
1696287326102,-0.29614258,-0.75738525,0.65374756,-2.546875,-2.109375,1.203125
1696287326149,-0.29882812,-0.73272705,0.6586304,-3.609375,-1.703125,0.296875
1696287326177,-0.3046875,-0.75372314,0.67230225,1.953125,-0.140625,0.078125
1696287326223,-0.30029297,-0.71881104,0.6520386,-1.671875,-1.015625,0.078125
1696287326270,-0.30493164,-0.7402954,0.66204834,-1.765625,-0.921875,0.46875
1696287326297,-0.30249023,-0.73883057,0.66278076,-0.546875,-1.921875,0.1875
1696287326344,-0.30200195,-0.74542236,0.66741943,-0.484375,-0.5,-0.125
1696287326419,-0.30200195,-0.7415161,0.66156006,-0.796875,-0.5625,0.390625
1696287326425,-0.29833984,-0.72491455,0.668396,-0.4375,-1.25,-0.15625
1696287326464,-0.29785156,-0.73394775,0.6598511,-1.5,-1.984375,0.5625
1696287326493,-0.3059082,-0.7366333,0.6635132,-1.21875,-1.0625,0.6875
1696287326539,-0.30029297,-0.73931885,0.65838623,-1.109375,-1.671875,0.046875
1696287326583,-0.3010254,-0.73883057,0.66400146,-1.40625,-0.96875,0.0625
1696287326612,-0.30737305,-0.7398071,0.65960693,-0.359375,-0.140625,-0.125
1696287326659,-0.3017578,-0.725647,0.6671753,0.34375,-0.734375,-0.375
1696287326687,-0.29077148,-0.7439575,0.67230225,0.875,-1.0,0.421875
1696287326734,-0.2927246,-0.72784424,0.65374756,-3.0,-0.765625,-1.015625
1696287326779,-0.31079102,-0.7476196,0.6749878,2.484375,0.21875,-0.265625
1696287326807,-0.2890625,-0.7227173,0.65618896,-0.09375,-0.921875,-0.265625
1696287326854,-0.30737305,-0.7402954,0.6610718,-0.59375,0.453125,-0.1875
1696287326882,-0.2980957,-0.73565674,0.66693115,1.84375,-0.75,0.03125
1696287326929,-0.2956543,-0.7366333,0.66693115,-1.28125,-0.84375,-0.1875
1696287326974,-0.30322266,-0.7449341,0.6571655,-1.3125,-1.359375,0.5625
1696287327001,-0.2932129,-0.7359009,0.6600952,-0.140625,-0.984375,-0.109375
1696287327048,-0.29663086,-0.7276001,0.6613159,-0.75,-1.3125,0.078125
1696287327094,-0.30517578,-0.741272,0.6635132,-0.734375,-0.96875,0.625
1696287327122,-0.30004883,-0.737854,0.6637573,-0.84375,-1.3125,0.203125
1696287327170,-0.29858398,-0.7424927,0.6610718,-0.9375,-1.40625,0.1875
1696287327196,-0.2944336,-0.74420166,0.6635132,-0.703125,-1.15625,0.3125
1696287327243,-0.3034668,-0.7234497,0.6715698,0.640625,-0.6875,0.234375
1696287327288,-0.30004883,-0.7451782,0.6618042,-1.171875,-2.859375,0.921875
1696287327317,-0.30908203,-0.74224854,0.66156006,-2.46875,-1.015625,0.328125
1696287327364,-0.2915039,-0.74298096,0.6576538,1.171875,-1.375,-0.0625
1696287327391,-0.29858398,-0.7246704,0.651062,-1.078125,-0.6875,-0.265625
1696287327438,-0.3100586,-0.74468994,0.6600952,-0.640625,0.640625,0.15625
1696287327483,-0.30249023,-0.7402954,0.66448975,2.015625,-0.5625,-0.5
1696287327512,-0.29589844,-0.74664307,0.6613159,-0.0625,0.890625,-0.328125
1696287327559,-0.30517578,-0.7346802,0.649353,-0.390625,-0.78125,0.1875
1696287327602,-0.29345703,-0.7366333,0.6576538,0.328125,-1.25,-0.09375
1696287327632,-0.29833984,-0.73638916,0.65130615,-0.78125,-1.171875,0.015625
1696287327679,-0.30371094,-0.7420044,0.6613159,-0.796875,-1.0625,0.546875
1696287327708,-0.3022461,-0.7451782,0.6635132,-0.6875,-1.546875,0.25
1696287327755,-0.3017578,-0.73101807,0.6503296,-1.3125,-1.609375,0.140625
1696287327799,-0.29736328,-0.74053955,0.64837646,-2.1875,-1.671875,0.1875
1696287327827,-0.29956055,-0.73809814,0.68670654,2.34375,-0.328125,0.15625
1696287327874,-0.28930664,-0.74542236,0.63201904,-4.21875,-2.5625,0.203125
1696287327901,-0.3137207,-0.75201416,0.6637573,-0.3125,-0.65625,0.71875
1696287327949,-0.29614258,-0.7283325,0.65740967,0.234375,-1.796875,-0.515625
1696287327994,-0.30444336,-0.7283325,0.6491089,-0.78125,0.21875,-0.109375
1696287328022,-0.3071289,-0.7402954,0.6610718,-0.921875,-1.03125,-0.03125
1696287328069,-0.29638672,-0.7444458,0.65496826,-0.984375,-1.703125,0.15625
1696287328096,-0.2998047,-0.74835205,0.6613159,0.03125,0.828125,-0.0625
1696287328145,-0.3076172,-0.74053955,0.65667725,0.578125,-0.296875,-0.4375
1696287328189,-0.30395508,-0.73687744,0.6486206,0.296875,-1.3125,-0.3125
1696287328217,-0.29760742,-0.7371216,0.65252686,0.234375,-0.078125,-0.453125
1696287328264,-0.29541016,-0.74468994,0.6486206,0.734375,0.265625,-0.5
1696287328307,-0.30273438,-0.7456665,0.65008545,1.4375,0.765625,-1.0
1696287328337,-0.30395508,-0.7439575,0.6498413,2.09375,1.625,-1.015625
1696287328385,-0.2980957,-0.73321533,0.64959717,1.40625,2.40625,-1.5
1696287328411,-0.3022461,-0.75128174,0.66937256,3.40625,0.765625,0.484375
1696287328459,-0.28735352,-0.74420166,0.6408081,-3.15625,-1.734375,-0.921875
1696287328504,-0.29370117,-0.7595825,0.64642334,0.9375,1.078125,-0.390625
1696287328531,-0.2915039,-0.7449341,0.64959717,1.328125,-0.09375,-0.25
1696287328580,-0.2944336,-0.7476196,0.651062,-0.109375,0.234375,-0.140625
1696287328607,-0.29467773,-0.7432251,0.6515503,0.25,0.203125,-0.125
1696287328655,-0.29663086,-0.75323486,0.64764404,-1.234375,-1.59375,0.109375
1696287328698,-0.30078125,-0.75250244,0.6473999,-1.546875,-1.671875,0.3125
1696287328726,-0.30273438,-0.74957275,0.6564331,-0.546875,-1.328125,0.5625
1696287328774,-0.30004883,-0.7444458,0.64715576,-1.28125,-2.3125,0.453125
1696287328802,-0.30029297,-0.74957275,0.6508179,-1.515625,-1.6875,0.59375
1696287328849,-0.29614258,-0.7515259,0.65252686,-1.25,-1.3125,0.78125
1696287328894,-0.29418945,-0.7498169,0.64886475,-1.609375,-1.703125,0.375
1696287328922,-0.2993164,-0.741272,0.6469116,-0.90625,-0.75,0.0625
1696287328969,-0.29345703,-0.7354126,0.6569214,-0.3125,-0.171875,-0.453125
1696287329014,-0.29174805,-0.7542114,0.6691284,1.171875,-0.59375,0.859375
1696287329043,-0.29345703,-0.75250244,0.6469116,-4.15625,-2.171875,-0.3125
1696287329090,-0.3017578,-0.7463989,0.6425171,-0.765625,0.125,0.078125
1696287329117,-0.29760742,-0.7420044,0.6564331,0.734375,-0.25,-0.15625
1696287329165,-0.29589844,-0.74884033,0.65838623,-1.125,-0.78125,0.078125
1696287329209,-0.29882812,-0.74468994,0.6478882,-0.765625,-0.703125,0.0
1696287329237,-0.29711914,-0.75201416,0.6559448,-1.546875,-1.46875,0.359375
1696287329284,-0.30297852,-0.7451782,0.6473999,-1.71875,-1.53125,0.453125
1696287329311,-0.29663086,-0.74468994,0.651062,-0.40625,-1.0,0.0
1696287329358,-0.2932129,-0.7449341,0.6481323,-0.609375,-0.96875,0.109375
1696287329405,-0.296875,-0.7505493,0.6547241,-1.3125,-0.96875,0.0
1696287329432,-0.2980957,-0.74224854,0.6581421,-0.84375,-0.15625,0.203125
1696287329479,-0.3022461,-0.7481079,0.6576538,-0.59375,-1.046875,0.203125
1696287329508,-0.29345703,-0.74346924,0.6557007,-1.65625,-0.984375,-0.015625
1696287329555,-0.2998047,-0.7427368,0.64837646,-1.796875,-0.78125,0.140625
1696287329597,-0.30029297,-0.7407837,0.666687,1.15625,0.15625,0.265625
1696287329627,-0.28979492,-0.75006104,0.6557007,-2.9375,-2.6875,0.265625
1696287329675,-0.30639648,-0.7324829,0.6400757,-2.984375,-2.078125,0.0625
1696287329718,-0.29296875,-0.7468872,0.664978,1.234375,0.46875,-0.328125
1696287329765,-0.29907227,-0.7359009,0.6610718,-0.96875,-0.3125,0.265625
1696287329792,-0.29833984,-0.73760986,0.6552124,-1.859375,-1.046875,0.359375
1696287329823,-0.29492188,-0.74884033,0.6598511,-0.40625,-1.390625,0.125
1696287329868,-0.29125977,-0.7437134,0.6630249,-0.390625,-1.109375,0.015625
1696287329914,-0.29638672,-0.7432251,0.65374756,-0.515625,-0.515625,0.3125
1696287329943,-0.29711914,-0.7371216,0.6559448,-0.109375,-1.203125,-0.078125
1696287329990,-0.29882812,-0.73883057,0.6547241,-0.875,-0.984375,0.140625
1696287330018,-0.29003906,-0.7420044,0.6576538,-1.0625,-0.671875,0.265625
1696287330066,-0.2998047,-0.7432251,0.6659546,-0.4375,-1.078125,0.078125
1696287330108,-0.29663086,-0.7437134,0.6552124,-1.0625,-1.171875,0.1875
1696287330137,-0.29785156,-0.7390747,0.6557007,-0.796875,-0.53125,0.171875
1696287330184,-0.29077148,-0.72125244,0.664978,-0.28125,-0.5,-0.5625
1696287330227,-0.2944336,-0.7490845,0.67059326,1.03125,-0.453125,1.03125
1696287330256,-0.29174805,-0.74224854,0.6432495,-3.96875,-2.390625,-0.296875
1696287330306,-0.3022461,-0.7529907,0.66693115,0.59375,0.4375,-0.09375
1696287330333,-0.29003906,-0.73443604,0.6547241,-0.09375,-0.671875,-0.1875
1696287330379,-0.3005371,-0.74420166,0.66156006,-1.578125,-0.84375,0.328125
1696287330424,-0.29736328,-0.73809814,0.66204834,0.390625,-0.75,-0.109375
1696287330451,-0.2861328,-0.7444458,0.6581421,-0.59375,-1.453125,0.140625
1696287330499,-0.3017578,-0.74542236,0.6557007,-1.296875,-1.046875,0.59375
1696287330528,-0.29736328,-0.7307739,0.65960693,0.078125,-1.046875,-0.09375
1696287330574,-0.296875,-0.7371216,0.6600952,-0.3125,-1.4375,0.0
1696287330619,-0.29492188,-0.7427368,0.65374756,-0.765625,-0.65625,0.1875
1696287330648,-0.2956543,-0.7449341,0.65838623,-0.25,-1.015625,0.171875
1696287330694,-0.30151367,-0.74664307,0.6635132,-0.515625,-1.28125,0.375
1696287330722,-0.29956055,-0.7371216,0.65252686,-1.25,-1.0625,0.203125
1696287330768,-0.2939453,-0.74591064,0.6522827,-1.03125,-1.25,-0.09375
1696287330814,-0.29907227,-0.72979736,0.66619873,1.03125,0.015625,-0.015625
1696287330842,-0.29296875,-0.75982666,0.6515503,-1.828125,-2.96875,0.546875
1696287330890,-0.3137207,-0.73883057,0.6532593,-1.78125,-1.4375,0.0
1696287330932,-0.296875,-0.75372314,0.6688843,2.25,-0.265625,0.015625
1696287330961,-0.2993164,-0.7319946,0.6557007,-0.953125,-1.078125,0.328125
1696287331010,-0.3046875,-0.74298096,0.6552124,-1.3125,-0.703125,0.453125
1696287331036,-0.29589844,-0.7493286,0.6586304,-0.4375,-1.6875,0.3125
1696287331084,-0.29833984,-0.7476196,0.6696167,-1.078125,-1.109375,-0.140625
1696287331127,-0.296875,-0.74298096,0.65960693,-1.625,-1.375,0.40625
1696287331156,-0.3017578,-0.73443604,0.6547241,-0.703125,-2.328125,0.15625
1696287331204,-0.3022461,-0.73687744,0.65618896,-1.84375,-2.703125,0.46875
1696287331232,-0.30200195,-0.73687744,0.6635132,-2.78125,-1.5,1.265625
1696287331279,-0.30419922,-0.74591064,0.65911865,-3.578125,-2.734375,1.8125
1696287331322,-0.30004883,-0.7317505,0.65667725,-2.9375,-2.359375,0.671875
1696287331351,-0.29785156,-0.7246704,0.66156006,-1.84375,-1.203125,0.75
1696287331399,-0.29663086,-0.72076416,0.66741943,-2.25,-1.765625,0.46875
1696287331427,-0.30493164,-0.73394775,0.6798706,1.09375,-1.359375,1.375
1696287331474,-0.2836914,-0.73223877,0.64959717,-5.71875,-2.953125,-0.03125
1696287331519,-0.31103516,-0.74176025,0.6732788,0.78125,-0.828125,0.625
1696287331547,-0.29614258,-0.72247314,0.67645264,-0.3125,-2.09375,0.078125
1696287331594,-0.30908203,-0.7305298,0.6598511,-1.734375,-1.1875,0.6875
1696287331638,-0.3125,-0.7329712,0.6762085,0.296875,-1.25,0.671875
1696287331668,-0.30249023,-0.7427368,0.6679077,-2.578125,-1.78125,0.453125
1696287331714,-0.29833984,-0.7268677,0.6625366,-1.890625,-1.546875,0.609375
1696287331741,-0.29663086,-0.73394775,0.668396,-0.59375,-1.546875,0.28125
1696287331790,-0.29736328,-0.72857666,0.6720581,-0.9375,-2.03125,0.296875
1696287331832,-0.3022461,-0.7283325,0.6715698,-1.640625,-1.875,0.828125
1696287331862,-0.30737305,-0.7305298,0.6720581,-1.3125,-2.234375,0.59375
1696287331907,-0.30395508,-0.7341919,0.66864014,-1.171875,-1.953125,0.359375
1696287331937,-0.30541992,-0.723938,0.6708374,-0.6875,-1.78125,0.015625
1696287331983,-0.30273438,-0.7210083,0.6671753,-1.71875,-1.71875,0.15625
1696287332027,-0.30639648,-0.72247314,0.684021,1.765625,-1.53125,0.96875
1696287332057,-0.29345703,-0.7295532,0.65374756,-4.578125,-3.21875,-0.1875
1696287332102,-0.31518555,-0.7407837,0.6803589,0.46875,-1.875,0.609375
1696287332132,-0.29223633,-0.71466064,0.6688843,-0.703125,-2.34375,-0.4375
1696287332177,-0.3125,-0.7217407,0.67059326,-0.828125,-0.21875,0.328125
1696287332222,-0.31152344,-0.72320557,0.6828003,0.546875,-1.0,-0.09375
1696287332252,-0.29833984,-0.725647,0.6586304,-1.921875,-1.921875,0.0625
1696287332297,-0.31103516,-0.7319946,0.66448975,-1.0,-0.859375,0.109375
1696287332342,-0.30639648,-0.72003174,0.6742554,0.09375,-0.703125,-0.28125
1696287332372,-0.3100586,-0.7300415,0.67401123,-0.296875,-1.3125,-0.203125
1696287332418,-0.30639648,-0.72442627,0.6637573,-0.953125,-1.046875,0.28125
1696287332462,-0.3100586,-0.73272705,0.6696167,-0.78125,-1.09375,0.171875
1696287332493,-0.30371094,-0.72247314,0.6696167,-0.421875,-1.171875,0.109375
1696287332537,-0.31176758,-0.7251587,0.66815186,-1.21875,-0.84375,-0.078125
1696287332567,-0.30908203,-0.7161255,0.66400146,-1.953125,-1.59375,-0.203125
1696287332612,-0.31445312,-0.7210083,0.68670654,2.5625,-0.109375,0.03125
1696287332642,-0.29492188,-0.722229,0.66033936,-4.109375,-1.46875,-0.15625
1696287332687,-0.32910156,-0.7424927,0.6820679,0.78125,-1.15625,0.25
1696287332732,-0.2939453,-0.71099854,0.66082764,-0.5,-0.84375,-0.53125
1696287332762,-0.31518555,-0.72540283,0.6605835,-0.703125,0.015625,0.03125
1696287332807,-0.30908203,-0.7156372,0.67059326,-0.296875,-1.0625,-0.359375
1696287332837,-0.31079102,-0.736145,0.6610718,-0.90625,-0.921875,0.0
1696287332882,-0.31201172,-0.73516846,0.6647339,0.171875,0.4375,-0.21875
1696287332928,-0.31201172,-0.7161255,0.66448975,1.375,0.640625,-1.109375
1696287332956,-0.30273438,-0.71759033,0.6593628,2.140625,0.375,-1.21875
1696287333002,-0.3076172,-0.7229614,0.6676636,1.46875,1.359375,-0.875
1696287333047,-0.31054688,-0.7329712,0.6647339,2.578125,1.8125,-0.921875
1696287333077,-0.30249023,-0.7371216,0.6618042,1.921875,1.078125,-1.09375
1696287333122,-0.31396484,-0.73028564,0.64886475,1.21875,1.6875,-1.125
1696287333167,-0.30566406,-0.7402954,0.65960693,1.125,1.5,-0.90625
1696287333197,-0.3100586,-0.73638916,0.67523193,4.265625,2.125,-0.265625
1696287333242,-0.29882812,-0.7427368,0.64471436,-2.8125,-2.421875,-0.1875
1696287333271,-0.31347656,-0.7432251,0.6478882,-2.734375,-0.46875,0.0625
1696287333317,-0.30322266,-0.75006104,0.6671753,2.28125,1.375,-0.078125
1696287333347,-0.29907227,-0.7317505,0.6581421,-0.4375,-0.453125,-0.078125
1696287333392,-0.2980957,-0.741272,0.6520386,-1.9375,-0.859375,0.40625
1696287333452,-0.30419922,-0.7444458,0.65618896,-0.6875,-2.0,0.6875
1696287333466,-0.29638672,-0.7451782,0.65423584,-1.125,-3.4375,0.0625
1696287333512,-0.31323242,-0.74053955,0.64349365,-0.890625,-1.96875,-0.046875
1696287333557,-0.30517578,-0.73687744,0.6569214,0.8125,-0.25,-0.40625
1696287333587,-0.30200195,-0.74224854,0.65838623,-0.359375,-1.28125,-0.390625
1696287333633,-0.30419922,-0.7468872,0.6571655,0.078125,-0.265625,-0.1875
1696287333661,-0.3083496,-0.74468994,0.6598511,0.6875,-0.65625,-0.03125
1696287333707,-0.30541992,-0.7437134,0.6522827,-0.21875,-0.421875,-0.109375
1696287333752,-0.30859375,-0.7451782,0.64642334,-1.359375,-0.921875,0.40625
1696287333782,-0.3076172,-0.7402954,0.6564331,0.140625,-0.484375,0.015625
1696287333827,-0.30566406,-0.74957275,0.651062,-1.375,-2.03125,0.375
1696287333856,-0.3088379,-0.7359009,0.6359253,-3.953125,-2.484375,0.375
1696287333902,-0.30810547,-0.7385864,0.666687,1.890625,1.0,-0.46875
1696287333947,-0.3076172,-0.74420166,0.65301514,-0.21875,0.0625,0.328125
1696287333976,-0.3088379,-0.7493286,0.6539917,-2.046875,-0.609375,0.484375
1696287334022,-0.31201172,-0.7529907,0.65252686,-0.421875,-1.03125,-0.015625
1696287334052,-0.29345703,-0.7415161,0.6625366,-0.515625,-1.515625,-0.25
1696287334097,-0.3076172,-0.7366333,0.6466675,-1.03125,-0.40625,0.15625
1696287334142,-0.3076172,-0.7424927,0.65838623,0.375,-1.078125,-0.28125
1696287334172,-0.30078125,-0.74053955,0.6586304,-0.671875,-0.46875,-0.21875
1696287334217,-0.3022461,-0.73883057,0.65618896,-0.921875,-0.078125,0.15625
1696287334262,-0.3071289,-0.7415161,0.65618896,-1.15625,-0.671875,0.109375
1696287334292,-0.3010254,-0.7449341,0.64886475,-1.4375,-0.578125,0.09375
1696287334337,-0.30419922,-0.7476196,0.6571655,-1.3125,-0.546875,0.28125
1696287334367,-0.29663086,-0.73687744,0.6696167,0.46875,0.28125,-0.265625
1696287334412,-0.2956543,-0.7461548,0.65545654,-1.5625,-1.796875,0.578125
1696287334503,-0.30908203,-0.7402954,0.6522827,-4.21875,-2.078125,0.109375
1696287334515,-0.30541992,-0.75079346,0.6688843,0.96875,0.90625,-0.1875
1696287334532,-0.29467773,-0.72857666,0.6547241,-0.96875,-0.1875,0.203125
1696287334562,-0.30444336,-0.7402954,0.664978,-1.296875,-0.234375,0.375
1696287334607,-0.29956055,-0.741272,0.6618042,0.3125,-1.015625,-0.140625
1696287334652,-0.30200195,-0.7341919,0.66937256,-0.640625,-0.75,-0.09375
1696287334682,-0.3017578,-0.7415161,0.65789795,-1.234375,-0.421875,0.453125
1696287334727,-0.29345703,-0.7337036,0.6622925,-0.0625,-0.96875,0.09375
1696287334757,-0.30151367,-0.73565674,0.6581421,-0.59375,-0.703125,0.015625
1696287334803,-0.30200195,-0.73565674,0.66571045,-0.765625,-0.15625,0.359375
1696287334847,-0.2944336,-0.7390747,0.6637573,-0.578125,-0.890625,0.140625
1696287334877,-0.30078125,-0.7385864,0.6564331,-0.765625,-0.734375,0.046875
1696287334922,-0.29711914,-0.7366333,0.66571045,-0.53125,-0.453125,0.3125
1696287334967,-0.29223633,-0.7234497,0.67645264,0.28125,0.015625,-0.46875
1696287334997,-0.29296875,-0.7527466,0.6742554,1.59375,-0.21875,0.6875
1696287335042,-0.29492188,-0.7307739,0.65057373,-3.234375,-1.703125,-0.3125
1696287335072,-0.30322266,-0.7444458,0.6720581,1.9375,1.0625,-0.046875
1696287335117,-0.29077148,-0.72491455,0.65960693,0.140625,-0.890625,-0.015625
1696287335162,-0.30126953,-0.7366333,0.66326904,-1.328125,-0.3125,0.4375
1696287335192,-0.29663086,-0.7437134,0.6713257,1.28125,-0.71875,0.15625
1696287335237,-0.29907227,-0.737854,0.6613159,-1.84375,-1.4375,0.375
1696287335267,-0.29882812,-0.7437134,0.6679077,-1.390625,-0.578125,0.59375
1696287335312,-0.29467773,-0.73638916,0.6630249,-0.0625,-0.6875,-0.125
1696287335357,-0.29711914,-0.73394775,0.6571655,-0.84375,-1.484375,0.359375
1696287335387,-0.29370117,-0.7341919,0.6659546,-0.828125,-0.734375,0.421875
1696287335432,-0.2939453,-0.7424927,0.67059326,-0.234375,-0.890625,0.390625
1696287335462,-0.2944336,-0.73565674,0.65740967,-1.484375,-1.453125,0.15625
1696287335507,-0.30004883,-0.7307739,0.6600952,-0.375,-0.0625,-0.25
1696287335553,-0.29296875,-0.7263794,0.66400146,-0.25,-0.359375,-0.3125
1696287335582,-0.30078125,-0.74224854,0.67840576,2.671875,-0.359375,1.0625
1696287335628,-0.27929688,-0.73565674,0.6522827,-5.125,-2.71875,-0.109375
1696287335673,-0.30810547,-0.75250244,0.68084717,-0.171875,-0.796875,1.234375
1696287335702,-0.29223633,-0.73638916,0.6703491,-4.171875,-4.515625,2.328125
1696287335748,-0.30200195,-0.7139282,0.65252686,-6.328125,-4.65625,1.5
1696287335777,-0.29736328,-0.73223877,0.6744995,-0.125,-2.453125,0.578125
1696287335822,-0.28564453,-0.73321533,0.6659546,-3.28125,-2.734375,0.859375
1696287335867,-0.29858398,-0.74102783,0.6691284,-2.703125,-2.53125,1.0625
1696287335897,-0.2998047,-0.7210083,0.6713257,-1.28125,-2.578125,0.59375
1696287335942,-0.29858398,-0.71417236,0.6664429,-1.21875,-2.5,0.359375
1696287335972,-0.30200195,-0.7258911,0.66864014,-1.34375,-2.046875,0.96875
1696287336017,-0.29711914,-0.7295532,0.68011475,-1.203125,-2.375,0.34375
1696287336062,-0.30517578,-0.7280884,0.670105,-1.15625,-2.296875,0.3125
1696287336092,-0.30200195,-0.7280884,0.6725464,-0.0625,-1.390625,0.359375
1696287336137,-0.30664062,-0.7190552,0.680603,0.671875,-0.859375,0.21875
1696287336182,-0.2998047,-0.7402954,0.66571045,-1.0625,-2.5,0.4375
1696287336212,-0.30664062,-0.7241821,0.6691284,-2.265625,-1.0625,-0.015625
1696287336257,-0.29833984,-0.73809814,0.6810913,1.734375,-1.328125,-0.234375
1696287336286,-0.3046875,-0.7161255,0.66082764,-1.1875,-0.578125,-0.046875
1696287336332,-0.31396484,-0.7263794,0.6762085,-1.234375,-0.5,0.375
1696287336392,-0.30444336,-0.7354126,0.67718506,0.4375,-2.03125,0.28125
1696287336406,-0.2956543,-0.72906494,0.67718506,-0.359375,-0.171875,-0.34375
1696287336452,-0.31420898,-0.73443604,0.6708374,-0.484375,-0.703125,-0.015625
1696287336482,-0.2993164,-0.7241821,0.66741943,0.015625,-1.421875,-0.15625
1696287336527,-0.30200195,-0.71881104,0.67474365,-0.734375,-0.8125,-0.125
1696287336572,-0.3100586,-0.7227173,0.670105,-0.59375,-0.84375,0.40625
1696287336601,-0.30493164,-0.72662354,0.67230225,-0.453125,-1.515625,0.0625
1696287336647,-0.30688477,-0.7241821,0.6725464,-0.9375,-0.953125,0.078125
1696287336677,-0.30126953,-0.7168579,0.6618042,-2.0625,-0.828125,-0.09375
1696287336722,-0.3125,-0.72198486,0.6876831,2.515625,-0.53125,0.328125
1696287336768,-0.29663086,-0.7268677,0.6588745,-3.953125,-1.6875,-0.375
1696287336797,-0.32104492,-0.741272,0.67962646,0.546875,-1.15625,0.59375
1696287336842,-0.29223633,-0.7178345,0.66522217,-0.25,-1.09375,-0.546875
1696287336887,-0.31176758,-0.72198486,0.6676636,-0.5,0.578125,-0.328125
1696287336917,-0.30932617,-0.72540283,0.67840576,0.421875,-0.28125,-0.25
1696287336963,-0.30493164,-0.72979736,0.66156006,-1.3125,-1.078125,-0.171875
1696287336992,-0.31030273,-0.7354126,0.6659546,-0.671875,-0.1875,0.296875
1696287337037,-0.3088379,-0.72320557,0.6774292,0.421875,-0.453125,-0.453125
1696287337082,-0.2956543,-0.722229,0.66082764,-0.015625,-1.359375,-0.3125
1696287337113,-0.30419922,-0.7217407,0.67352295,-0.515625,-0.265625,0.40625
1696287337156,-0.3083496,-0.7305298,0.66937256,-0.21875,-0.25,-0.125
1696287337186,-0.30029297,-0.72735596,0.6622925,-0.421875,-0.140625,-0.421875
1696287337232,-0.3046875,-0.7366333,0.66571045,0.546875,-0.09375,-0.046875
1696287337277,-0.30859375,-0.7227173,0.67645264,2.359375,0.890625,-0.3125
1696287337306,-0.28955078,-0.7349243,0.65911865,-1.265625,-2.0,0.3125
1696287337353,-0.31103516,-0.73223877,0.6564331,-1.0625,0.125,-0.34375
1696287337382,-0.2980957,-0.7371216,0.6737671,4.296875,1.8125,-1.171875
1696287337427,-0.30249023,-0.73028564,0.6654663,1.046875,-0.75,-0.359375
1696287337473,-0.3010254,-0.74053955,0.65545654,-0.21875,-0.359375,-0.125
1696287337502,-0.30322266,-0.73931885,0.6588745,1.625,-0.40625,-0.65625
1696287337547,-0.30200195,-0.7359009,0.66619873,0.828125,0.578125,-0.96875
1696287337592,-0.30932617,-0.7427368,0.6522827,0.484375,0.015625,-0.0625
1696287337622,-0.29638672,-0.73760986,0.65618896,1.53125,-0.015625,-0.640625
1696287337667,-0.29858398,-0.7366333,0.651062,0.265625,-0.28125,-0.140625
1696287337697,-0.29956055,-0.7427368,0.6622925,0.265625,0.34375,0.25
1696287337742,-0.30419922,-0.75006104,0.6552124,-0.84375,-0.875,-0.046875
1696287337788,-0.30126953,-0.739563,0.6613159,-0.359375,-0.921875,-0.015625
1696287337817,-0.30126953,-0.73394775,0.65252686,-1.859375,-1.4375,-0.125
1696287337864,-0.3088379,-0.7398071,0.6727905,1.125,-0.15625,0.78125
1696287337892,-0.29760742,-0.74298096,0.65130615,-4.234375,-2.46875,-0.421875
1696287337938,-0.30688477,-0.74053955,0.6520386,-1.265625,0.328125,-0.125
1696287337982,-0.29858398,-0.7420044,0.6732788,1.421875,0.375,-0.15625
1696287338012,-0.30371094,-0.73565674,0.6654663,-1.09375,-0.4375,0.078125
1696287338057,-0.3010254,-0.7283325,0.66448975,-0.875,-0.125,0.015625
1696287338088,-0.2998047,-0.73931885,0.66082764,-0.828125,-0.59375,-0.046875
1696287338132,-0.3059082,-0.74005127,0.65374756,-1.546875,-1.328125,0.34375
1696287338177,-0.29882812,-0.7293091,0.6559448,-0.203125,-0.4375,-0.046875
1696287338207,-0.2993164,-0.7373657,0.6625366,-0.015625,-0.640625,-0.078125
1696287338252,-0.29907227,-0.739563,0.66448975,-0.390625,-0.328125,0.0625
1696287338297,-0.30078125,-0.7402954,0.6637573,-0.546875,-0.53125,0.15625
1696287338327,-0.30371094,-0.741272,0.6571655,-0.921875,-1.03125,-0.046875
1696287338372,-0.30078125,-0.74102783,0.6605835,-0.984375,-0.625,0.09375
1696287338401,-0.2980957,-0.7341919,0.6703491,1.1875,0.734375,-0.40625
1696287338447,-0.29516602,-0.7515259,0.66400146,-0.625,-1.953125,0.5625
1696287338492,-0.30419922,-0.73883057,0.64398193,-3.546875,-2.25,0.125
1696287338522,-0.2939453,-0.7444458,0.670105,1.125,1.15625,-0.375
1696287338567,-0.30395508,-0.73516846,0.65960693,0.125,0.3125,0.21875
1696287338597,-0.30078125,-0.7493286,0.66693115,-1.140625,-0.375,0.21875
1696287338642,-0.29760742,-0.74591064,0.6569214,0.359375,-1.1875,0.125
1696287338688,-0.29345703,-0.7383423,0.664978,-0.046875,-0.75,-0.265625
1696287338717,-0.30004883,-0.7415161,0.66156006,-0.84375,-0.46875,0.234375
1696287338762,-0.29589844,-0.73223877,0.66082764,0.09375,-1.046875,-0.046875
1696287338792,-0.2902832,-0.7385864,0.66326904,-0.59375,-1.09375,0.09375
1696287338837,-0.29711914,-0.74176025,0.6618042,-0.515625,-0.09375,0.1875
1696287338883,-0.29736328,-0.74176025,0.66326904,-0.296875,-0.953125,0.0625
1696287338912,-0.29589844,-0.74005127,0.6586304,-1.1875,-1.1875,0.046875
1696287338957,-0.29663086,-0.74346924,0.6569214,-1.703125,-0.984375,0.109375
1696287339002,-0.30493164,-0.7324829,0.66448975,1.4375,0.375,0.125
1696287339047,-0.28637695,-0.7503052,0.6508179,-2.171875,-2.90625,0.4375
1696287339077,-0.30493164,-0.7293091,0.649353,-2.671875,-1.4375,0.125
1696287339107,-0.29052734,-0.74591064,0.66986084,1.953125,0.3125,-0.28125
1696287339152,-0.29736328,-0.7307739,0.6598511,-1.140625,-0.9375,0.21875
1696287339212,-0.29736328,-0.74224854,0.6598511,-1.703125,-0.609375,0.359375
1696287339226,-0.2919922,-0.7468872,0.6588745,-0.3125,-1.96875,0.390625
1696287339272,-0.29760742,-0.74713135,0.6600952,-0.46875,-1.203125,0.046875
1696287339302,-0.29589844,-0.73687744,0.65789795,-0.421875,-0.453125,0.28125
1696287339347,-0.2915039,-0.7385864,0.6532593,0.21875,-1.359375,0.109375
1696287339392,-0.2944336,-0.7402954,0.65496826,-0.5625,-0.953125,0.171875
1696287339422,-0.29760742,-0.7385864,0.6630249,-0.484375,-0.625,0.203125
1696287339467,-0.30151367,-0.7463989,0.66278076,-0.390625,-1.3125,0.125
1696287339512,-0.30200195,-0.7366333,0.65496826,-1.109375,-1.0,0.203125
1696287339541,-0.2980957,-0.7449341,0.65838623,-1.375,-1.234375,0.09375
1696287339587,-0.29663086,-0.73565674,0.66400146,1.171875,0.1875,0.125
1696287339617,-0.28833008,-0.75494385,0.65057373,-2.609375,-3.03125,0.4375
1696287339661,-0.3112793,-0.7295532,0.65838623,-2.359375,-1.34375,0.015625
1696287339707,-0.28808594,-0.7427368,0.67230225,1.609375,-0.265625,-0.15625
1696287339737,-0.3005371,-0.72906494,0.6539917,-1.09375,-0.765625,0.3125
1696287339782,-0.29345703,-0.7398071,0.6571655,-1.59375,-0.734375,0.3125
1696287339812,-0.29467773,-0.7407837,0.65618896,-0.390625,-1.84375,0.265625
1696287339857,-0.29077148,-0.7468872,0.6647339,0.140625,-0.78125,0.140625
1696287339902,-0.2980957,-0.736145,0.66082764,-0.234375,-0.71875,0.28125
1696287339931,-0.29052734,-0.73883057,0.66326904,0.71875,-1.171875,0.0
1696287339977,-0.29858398,-0.7383423,0.65789795,-0.78125,-1.0625,0.3125
1696287340007,-0.30126953,-0.7493286,0.6600952,-0.75,-1.0,0.640625
1696287340052,-0.30200195,-0.7385864,0.66571045,-0.234375,-2.046875,0.359375
1696287340097,-0.296875,-0.74957275,0.6576538,-1.71875,-1.921875,0.4375
1696287340126,-0.29614258,-0.7505493,0.6613159,-2.40625,-2.203125,0.53125
1696287340172,-0.29516602,-0.73150635,0.6664429,0.359375,-1.5625,0.046875
1696287340247,-0.2944336,-0.7529907,0.64715576,-2.265625,-3.859375,0.671875
1696287340249,-0.30249023,-0.7334595,0.6564331,-3.75,-2.421875,0.0625
1696287340292,-0.30688477,-0.7439575,0.65960693,1.3125,-0.984375,0.234375
1696287340322,-0.30249023,-0.72540283,0.65008545,-1.34375,-1.109375,-0.125
1696287340366,-0.30029297,-0.73883057,0.6598511,-1.734375,-1.078125,0.640625
1696287340412,-0.2993164,-0.74468994,0.6571655,-0.734375,-2.5,0.421875
1696287340442,-0.30444336,-0.74884033,0.66326904,-0.75,-0.921875,-0.109375
1696287340487,-0.30419922,-0.74298096,0.66278076,-0.484375,-0.765625,0.453125
1696287340517,-0.29711914,-0.7280884,0.6552124,-0.34375,-1.75,0.0625
1696287340562,-0.30126953,-0.7334595,0.65423584,-0.75,-1.390625,0.375
1696287340607,-0.30200195,-0.73931885,0.66522217,-0.6875,-0.859375,0.53125
1696287340637,-0.30029297,-0.74053955,0.6659546,-1.421875,-1.90625,0.453125
1696287340682,-0.2993164,-0.7354126,0.6564331,-2.5,-2.296875,0.515625
1696287340712,-0.30395508,-0.7366333,0.6547241,-2.09375,-2.328125,0.4375
1696287340757,-0.30859375,-0.72735596,0.6754761,1.421875,-0.90625,0.328125
1696287340802,-0.2890625,-0.74786377,0.6466675,-2.84375,-2.9375,0.171875
1696287340832,-0.31103516,-0.74176025,0.6696167,-1.421875,-0.734375,0.375
1696287340878,-0.3100586,-0.74420166,0.6708374,0.671875,-1.984375,0.359375
1696287340953,-0.30493164,-0.7149048,0.64837646,-1.859375,-1.671875,-0.171875
1696287340955,-0.30981445,-0.7324829,0.66619873,-1.59375,-1.0625,0.734375
1696287340997,-0.30151367,-0.74053955,0.6569214,-1.453125,-2.484375,0.3125
1696287341027,-0.30371094,-0.74835205,0.66400146,-0.28125,-1.40625,-0.046875
1696287341072,-0.30444336,-0.7346802,0.6630249,0.171875,-0.328125,-0.046875
1696287341132,-0.29736328,-0.7317505,0.66619873,0.09375,-0.890625,0.0
1696287341145,-0.31030273,-0.72662354,0.666687,-0.78125,-1.078125,0.09375
1696287341192,-0.30786133,-0.73321533,0.6588745,-0.265625,-0.96875,0.203125
1696287341222,-0.30786133,-0.7349243,0.66326904,-0.546875,-1.046875,0.03125
1696287341267,-0.30517578,-0.7329712,0.66156006,-0.53125,-0.28125,-0.328125
1696287341312,-0.29785156,-0.7293091,0.6564331,-2.140625,-1.515625,-0.109375
1696287341342,-0.31762695,-0.72540283,0.684021,3.0,0.9375,0.15625
1696287341387,-0.29296875,-0.736145,0.6286011,-4.234375,-2.78125,-0.078125
1696287341418,-0.3227539,-0.7461548,0.66986084,-0.0625,-0.0625,0.484375
1696287341462,-0.29663086,-0.7317505,0.6647339,1.203125,-1.25,-0.59375
1696287341507,-0.31274414,-0.7268677,0.65301514,-0.359375,0.515625,-0.296875
1696287341537,-0.30786133,-0.72857666,0.6647339,0.296875,0.5625,0.015625
1696287341582,-0.30688477,-0.7505493,0.65740967,-0.640625,-1.421875,-0.234375
1696287341628,-0.30908203,-0.7451782,0.6637573,-0.171875,-0.03125,0.0625
1696287341657,-0.30395508,-0.7349243,0.65740967,0.0,-0.46875,-0.234375
1696287341702,-0.30200195,-0.7366333,0.6618042,0.359375,-0.671875,-0.15625
1696287341732,-0.30419922,-0.73394775,0.65911865,-0.734375,-0.640625,0.046875
1696287341777,-0.30493164,-0.74468994,0.65618896,-0.296875,-0.390625,0.140625
1696287341823,-0.30859375,-0.7415161,0.6586304,-0.328125,-0.875,-0.015625
1696287341852,-0.30541992,-0.7312622,0.6498413,-0.53125,-0.78125,-0.421875
1696287341897,-0.296875,-0.7246704,0.6403198,-1.453125,-0.421875,-0.359375
1696287341927,-0.30859375,-0.7359009,0.6762085,4.4375,1.65625,0.09375
1696287341972,-0.2878418,-0.74468994,0.63861084,-3.96875,-2.28125,-0.234375
1696287342017,-0.3137207,-0.7456665,0.65179443,-0.546875,-0.078125,0.234375
1696287342047,-0.29711914,-0.7415161,0.668396,2.0,-0.578125,-0.46875
1696287342092,-0.30297852,-0.7312622,0.65301514,-0.53125,0.171875,-0.171875
1696287342136,-0.30541992,-0.74298096,0.6539917,-0.796875,-0.015625,0.578125
1696287342166,-0.29907227,-0.7407837,0.65740967,-0.84375,-1.78125,0.171875
1696287342212,-0.30810547,-0.74713135,0.65789795,-1.34375,-1.40625,0.078125
1696287342242,-0.29736328,-0.7468872,0.6503296,-0.625,-0.5625,0.03125
1696287342287,-0.2927246,-0.73883057,0.6466675,0.203125,-0.703125,-0.265625
1696287342332,-0.29882812,-0.7383423,0.6571655,-0.25,-0.640625,-0.15625
1696287342362,-0.3046875,-0.7490845,0.65740967,-0.390625,-0.296875,0.171875
1696287342407,-0.30615234,-0.75079346,0.65618896,-1.15625,-0.984375,0.28125
1696287342437,-0.30493164,-0.7354126,0.6478882,-0.796875,-0.6875,0.0
1696287342482,-0.2980957,-0.7268677,0.65179443,-0.6875,-0.078125,-0.46875
1696287342527,-0.3034668,-0.7498169,0.66815186,1.421875,0.828125,0.890625
1696287342557,-0.28979492,-0.7463989,0.6478882,-4.296875,-1.875,-0.078125
1696287342603,-0.30932617,-0.7383423,0.6481323,-1.515625,-0.390625,-0.078125
1696287342632,-0.2927246,-0.73638916,0.6571655,1.375,0.46875,-0.234375
1696287342677,-0.30615234,-0.74053955,0.6688843,-0.953125,-0.25,0.203125
1696287342722,-0.3034668,-0.73443604,0.65374756,-0.84375,-0.65625,0.265625
1696287342752,-0.28857422,-0.7437134,0.66278076,-0.765625,-1.015625,0.125
1696287342797,-0.29638672,-0.7439575,0.65496826,-0.921875,-0.8125,0.46875
1696287342842,-0.296875,-0.7407837,0.65740967,-0.0625,-0.5,-0.03125
1696287342871,-0.29858398,-0.7373657,0.65545654,-0.28125,-1.25,0.09375
1696287342917,-0.30004883,-0.7415161,0.6539917,-0.9375,-0.71875,0.03125
1696287342946,-0.30297852,-0.739563,0.6613159,-0.421875,-0.515625,0.171875
1696287342992,-0.30322266,-0.75201416,0.66448975,-0.5625,-1.015625,0.140625
1696287343037,-0.3010254,-0.7354126,0.6520386,-0.765625,-0.546875,0.25
1696287343067,-0.29467773,-0.72784424,0.6571655,0.265625,0.484375,-0.59375
1696287343112,-0.29833984,-0.7505493,0.67474365,1.484375,-0.0625,0.921875
1696287343142,-0.2927246,-0.73883057,0.6520386,-3.71875,-1.828125,-0.171875
1696287343187,-0.30273438,-0.74786377,0.6593628,0.09375,0.328125,-0.234375
1696287343232,-0.2944336,-0.7334595,0.66326904,0.703125,-0.3125,-0.265625
1696287343262,-0.30419922,-0.73687744,0.66033936,-1.4375,-0.578125,0.328125
1696287343307,-0.29858398,-0.7371216,0.65960693,0.0,-0.5,0.234375
1696287343337,-0.28808594,-0.7415161,0.6576538,-0.6875,-1.46875,0.0625
1696287343382,-0.30395508,-0.7527466,0.652771,-1.046875,-0.875,0.578125
1696287343427,-0.29125977,-0.7341919,0.6564331,0.15625,-0.890625,0.03125
1696287343456,-0.29541016,-0.73883057,0.65374756,-0.46875,-1.421875,0.109375
1696287343502,-0.2932129,-0.7461548,0.6569214,-0.90625,-0.4375,0.140625
1696287343547,-0.29907227,-0.74591064,0.6581421,-0.59375,-0.8125,0.046875
1696287343576,-0.30444336,-0.7490845,0.6547241,-0.71875,-1.203125,0.015625
1696287343622,-0.29638672,-0.7373657,0.6539917,-0.484375,-0.515625,0.296875
1696287343652,-0.29370117,-0.72662354,0.66815186,0.0,0.0,-0.546875
1696287343696,-0.29516602,-0.7546997,0.6744995,1.21875,-0.75,0.5625
1696287343742,-0.2956543,-0.7329712,0.6461792,-3.640625,-2.015625,-0.359375
1696287343772,-0.29174805,-0.75128174,0.6688843,1.453125,0.6875,-0.046875
1696287343832,-0.2939453,-0.7312622,0.6498413,-0.578125,-0.984375,-0.03125
1696287343846,-0.29711914,-0.7461548,0.6581421,-1.53125,-0.359375,0.234375
1696287343892,-0.2998047,-0.7432251,0.66204834,0.8125,-0.859375,0.03125
1696287343937,-0.28637695,-0.739563,0.6576538,-0.421875,-1.5625,-0.171875
1696287343967,-0.29907227,-0.74664307,0.6539917,-0.90625,-0.578125,0.5
1696287344012,-0.28881836,-0.73883057,0.6522827,0.015625,-1.203125,0.046875
1696287344041,-0.2998047,-0.7385864,0.6535034,-0.4375,-1.125,0.09375
1696287344087,-0.2932129,-0.7473755,0.65667725,-0.765625,-0.359375,0.28125
1696287344132,-0.2939453,-0.7476196,0.65545654,-0.640625,-0.984375,0.078125
1696287344162,-0.29858398,-0.7456665,0.65374756,-1.09375,-1.09375,0.109375
1696287344207,-0.30493164,-0.74346924,0.6576538,-0.765625,-0.78125,0.203125
1696287344252,-0.29711914,-0.7349243,0.67181396,0.890625,0.21875,-0.296875
1696287344282,-0.29003906,-0.7647095,0.66278076,-0.40625,-2.046875,0.515625
1696287344327,-0.29833984,-0.72662354,0.649353,-2.59375,-1.609375,-0.171875
1696287344357,-0.29052734,-0.75665283,0.6647339,1.875,0.25,0.015625
1696287344402,-0.29711914,-0.7305298,0.6552124,-0.984375,-0.828125,0.09375
1696287344447,-0.30444336,-0.7476196,0.66400146,-1.171875,-0.640625,0.453125
1696287344476,-0.2944336,-0.74957275,0.67059326,0.9375,-2.34375,0.484375
1696287344522,-0.29516602,-0.7493286,0.6671753,-1.328125,-1.890625,0.59375
1696287344552,-0.3005371,-0.74713135,0.6598511,-2.828125,-2.03125,0.859375
1696287344597,-0.29077148,-0.72906494,0.6532593,-1.5625,-2.40625,-0.15625
1696287344657,-0.29541016,-0.741272,0.6473999,-1.6875,-1.75,0.109375
1696287344671,-0.29907227,-0.7415161,0.6637573,-0.84375,-0.5,1.015625
1696287344732,-0.30151367,-0.7359009,0.6605835,-1.90625,-2.1875,0.484375
1696287344746,-0.29663086,-0.7366333,0.6539917,-2.796875,-2.09375,0.359375
1696287344792,-0.29760742,-0.7432251,0.65960693,-2.078125,-1.453125,0.46875
1696287344837,-0.30297852,-0.7305298,0.6769409,0.78125,-0.78125,0.578125
1696287344868,-0.28515625,-0.75128174,0.64959717,-3.953125,-3.765625,0.640625
1696287344912,-0.31030273,-0.73394775,0.66693115,-2.640625,-1.453125,0.75
1696287344957,-0.30297852,-0.73443604,0.67523193,0.421875,-2.0,0.4375
1696287344987,-0.296875,-0.71466064,0.6576538,-2.328125,-1.984375,0.265625
1696287345032,-0.30639648,-0.7246704,0.67303467,-2.015625,-1.375,0.828125
1696287345061,-0.2998047,-0.739563,0.6598511,-2.6875,-3.921875,0.625
1696287345107,-0.3022461,-0.7366333,0.6737671,-0.8125,-1.546875,-0.140625
1696287345152,-0.3005371,-0.72979736,0.66278076,-1.078125,-1.40625,0.53125
1696287345182,-0.30200195,-0.72442627,0.6691284,-1.0,-2.078125,0.296875
1696287345227,-0.30249023,-0.72784424,0.6732788,-1.203125,-1.953125,0.625
1696287345257,-0.3005371,-0.7288208,0.6720581,-1.8125,-1.890625,0.5
1696287345302,-0.3083496,-0.7288208,0.66815186,-2.0,-2.265625,0.640625
1696287345347,-0.30737305,-0.7241821,0.66448975,-0.625,-1.71875,0.0625
1696287345376,-0.30151367,-0.7061157,0.664978,-0.8125,-0.890625,-0.015625
1696287345422,-0.30566406,-0.7288208,0.684021,2.296875,-0.890625,0.640625
1696287345467,-0.29833984,-0.72247314,0.65130615,-4.109375,-1.875,-0.34375
1696287345497,-0.31713867,-0.74176025,0.6749878,0.8125,-1.46875,0.515625
1696287345541,-0.2944336,-0.7202759,0.6586304,-1.234375,-2.09375,-0.171875
1696287345572,-0.31933594,-0.7246704,0.66522217,-0.84375,-0.078125,0.125
1696287345617,-0.30737305,-0.72491455,0.6828003,1.515625,-1.015625,0.15625
1696287345663,-0.31176758,-0.72662354,0.6708374,-1.28125,-1.125,-0.125
1696287345691,-0.3112793,-0.7324829,0.66522217,-0.796875,-0.6875,0.0
1696287345737,-0.30615234,-0.7168579,0.67401123,0.515625,-0.625,-0.328125
1696287345767,-0.30981445,-0.71832275,0.6727905,-0.09375,-1.375,-0.046875
1696287345812,-0.3083496,-0.72052,0.6671753,-0.765625,-0.796875,0.21875
1696287345857,-0.30517578,-0.7337036,0.67108154,-0.546875,-0.84375,0.015625
1696287345887,-0.30810547,-0.723938,0.66278076,-0.78125,-0.875,-0.09375
1696287345932,-0.30810547,-0.7341919,0.65960693,-2.078125,-1.75,-0.21875
1696287345962,-0.3149414,-0.7307739,0.6871948,2.84375,0.4375,-0.015625
1696287346007,-0.29638672,-0.7312622,0.64642334,-4.125,-2.234375,-0.1875
1696287346052,-0.3322754,-0.7402954,0.6820679,-0.046875,-0.921875,0.625
1696287346082,-0.29345703,-0.7258911,0.67181396,0.296875,-1.421875,-0.484375
1696287346127,-0.31567383,-0.72491455,0.6622925,-0.875,0.125,0.015625
1696287346202,-0.30859375,-0.7251587,0.6732788,-0.453125,-0.9375,-0.0625
1696287346204,-0.3071289,-0.73760986,0.6581421,-1.171875,-1.5,0.078125
1696287346248,-0.3137207,-0.74053955,0.6679077,-0.546875,-0.265625,0.375
1696287346292,-0.3083496,-0.725647,0.6671753,0.453125,-0.59375,-0.375
1696287346322,-0.31103516,-0.722229,0.66156006,-0.234375,-1.15625,0.046875
1696287346367,-0.31396484,-0.7263794,0.666687,-0.921875,-0.546875,0.21875
1696287346397,-0.30810547,-0.7359009,0.66693115,-0.296875,-0.703125,0.015625
1696287346442,-0.3088379,-0.7324829,0.6659546,-0.4375,-0.6875,0.015625
1696287346472,-0.3125,-0.7420044,0.6571655,-0.390625,-0.578125,-0.03125
1696287346517,-0.31054688,-0.7156372,0.6708374,2.421875,0.671875,-0.25
1696287346562,-0.29370117,-0.74713135,0.6520386,-0.1875,-1.109375,-0.109375
1696287346592,-0.31591797,-0.73687744,0.6588745,-0.921875,0.203125,-0.46875
1696287346637,-0.30932617,-0.7329712,0.66400146,3.9375,1.78125,-0.890625
1696287346667,-0.30688477,-0.72320557,0.649353,1.640625,0.578125,-1.0
1696287346712,-0.3100586,-0.74224854,0.6557007,1.078125,1.03125,-0.078125
1696287346757,-0.3112793,-0.7473755,0.66204834,1.265625,-0.53125,-0.046875
1696287346787,-0.30444336,-0.7329712,0.6588745,0.03125,-0.671875,-0.90625
1696287346832,-0.3149414,-0.7427368,0.6469116,-0.125,0.34375,-0.0625
1696287346906,-0.30493164,-0.739563,0.65252686,0.96875,0.625,-0.171875
1696287346908,-0.3046875,-0.74053955,0.65374756,0.484375,-0.1875,-0.296875
1696287346952,-0.30273438,-0.7449341,0.6600952,0.390625,0.484375,0.203125
1696287346982,-0.30395508,-0.7451782,0.65618896,-1.203125,-0.25,0.15625
1696287347027,-0.3046875,-0.73809814,0.6498413,-1.015625,-0.46875,-0.09375
1696287347072,-0.29785156,-0.72662354,0.65374756,-1.0,-0.421875,-0.15625
1696287347102,-0.29760742,-0.7451782,0.6713257,1.59375,1.046875,0.859375
1696287347147,-0.2939453,-0.7398071,0.6532593,-4.03125,-2.65625,-0.125
1696287347177,-0.30541992,-0.74298096,0.6442261,-2.4375,-0.875,-0.1875
1696287347222,-0.29516602,-0.73883057,0.6642456,1.390625,0.625,-0.390625
1696287347267,-0.30859375,-0.74102783,0.66326904,-0.6875,-0.46875,0.25
1696287347297,-0.30078125,-0.7359009,0.6473999,-1.640625,-0.953125,0.203125
1696287347342,-0.29882812,-0.73760986,0.65618896,-1.015625,-1.21875,0.234375
1696287347372,-0.29956055,-0.7437134,0.6581421,-1.3125,-1.09375,0.21875
1696287347432,-0.30004883,-0.74176025,0.65789795,-0.171875,-0.1875,0.046875
1696287347462,-0.296875,-0.7385864,0.6581421,-0.015625,-0.5625,-0.140625
1696287347492,-0.29760742,-0.739563,0.6593628,-0.390625,-0.3125,-0.078125
1696287347536,-0.30004883,-0.74176025,0.66400146,-0.390625,0.03125,0.09375
1696287347582,-0.30151367,-0.741272,0.6588745,-0.46875,-1.078125,0.046875
1696287347612,-0.30200195,-0.7398071,0.6571655,-0.671875,-0.578125,0.203125
1696287347657,-0.28979492,-0.73150635,0.66815186,0.953125,0.640625,-0.84375
1696287347686,-0.29907227,-0.7527466,0.6742554,1.0,-0.6875,0.59375
1696287347732,-0.2980957,-0.7346802,0.6481323,-3.71875,-2.203125,-0.1875
1696287347778,-0.29858398,-0.7385864,0.6588745,0.515625,0.828125,-0.125
1696287347807,-0.296875,-0.7305298,0.66033936,0.78125,-0.25,-0.171875
1696287347852,-0.29907227,-0.7427368,0.6671753,-1.46875,-0.859375,0.5
1696287347882,-0.29638672,-0.7407837,0.6576538,0.46875,-0.671875,-0.03125
1696287347927,-0.29589844,-0.7456665,0.66278076,-0.3125,-0.90625,-0.296875
1696287347971,-0.30249023,-0.74542236,0.65960693,-1.046875,-0.984375,0.421875
1696287348001,-0.2932129,-0.7359009,0.6564331,0.15625,-0.84375,0.015625
1696287348048,-0.3017578,-0.7407837,0.65960693,-0.4375,-1.171875,-0.0625
1696287348091,-0.29833984,-0.74176025,0.6515503,-0.765625,-0.5,0.203125
1696287348122,-0.296875,-0.74713135,0.66204834,-0.390625,-0.65625,0.046875
1696287348166,-0.29882812,-0.74102783,0.6588745,-0.453125,-1.109375,0.046875
1696287348197,-0.29956055,-0.73516846,0.6535034,-0.875,-0.71875,0.40625
1696287348242,-0.29101562,-0.72369385,0.66278076,-0.46875,-0.484375,-0.4375
1696287348286,-0.2980957,-0.7437134,0.6791382,1.578125,-0.328125,0.6875
1696287348317,-0.29101562,-0.7334595,0.6430054,-4.28125,-2.453125,-0.03125
1696287348362,-0.30151367,-0.7456665,0.66693115,0.421875,0.640625,-0.046875
1696287348391,-0.29467773,-0.7280884,0.65667725,0.0625,-0.6875,-0.09375
1696287348437,-0.30200195,-0.74053955,0.6637573,-1.5,-0.671875,0.484375
1696287348482,-0.30126953,-0.7349243,0.6622925,0.4375,-0.734375,0.0
1696287348512,-0.2927246,-0.73883057,0.66156006,-0.28125,-1.359375,0.109375
1696287348557,-0.3034668,-0.74420166,0.6532593,-1.171875,-0.75,0.546875
1696287348587,-0.29052734,-0.7427368,0.65740967,-0.078125,-1.046875,0.015625
1696287348631,-0.29882812,-0.7444458,0.65960693,-0.203125,-1.359375,0.21875
1696287348677,-0.29638672,-0.7415161,0.6552124,-0.84375,-0.4375,0.15625
1696287348707,-0.29663086,-0.7444458,0.6588745,-0.46875,-0.828125,0.078125
1696287348752,-0.29882812,-0.74468994,0.6605835,-0.515625,-1.125,0.03125
1696287348798,-0.30249023,-0.73321533,0.6557007,-1.125,-0.78125,0.21875
1696287348827,-0.2932129,-0.73443604,0.65252686,-2.03125,-1.0625,-0.171875
1696287348872,-0.29223633,-0.7424927,0.6713257,1.203125,0.328125,0.515625
1696287348902,-0.28637695,-0.7437134,0.64276123,-4.53125,-3.109375,0.4375
1696287348947,-0.30297852,-0.7415161,0.65960693,-0.625,-0.140625,0.078125
1696287348992,-0.2932129,-0.7373657,0.6642456,0.6875,-0.84375,-0.296875
1696287349021,-0.2980957,-0.7398071,0.6642456,-1.34375,-0.65625,0.328125
1696287349067,-0.29882812,-0.7337036,0.65789795,-0.65625,-0.640625,0.09375
1696287349097,-0.29077148,-0.7476196,0.66033936,-0.5625,-1.859375,0.109375
1696287349142,-0.29541016,-0.7515259,0.65838623,-0.609375,-1.015625,0.421875
1696287349187,-0.2944336,-0.7334595,0.65960693,-0.09375,-0.71875,0.03125
1696287349217,-0.2944336,-0.7354126,0.6613159,0.046875,-1.5,-0.078125
1696287349262,-0.29663086,-0.74102783,0.6473999,-0.875,-0.625,0.078125
1696287349293,-0.29711914,-0.7461548,0.6564331,-0.625,-0.703125,0.015625
1696287349337,-0.29516602,-0.73809814,0.65618896,-0.296875,-0.703125,-0.234375
1696287349382,-0.3010254,-0.7371216,0.65423584,-1.1875,-0.65625,-0.015625
1696287349412,-0.29736328,-0.7485962,0.6535034,-1.46875,-1.265625,-0.109375
1696287349457,-0.29663086,-0.7383423,0.6715698,1.234375,0.140625,0.375
1696287349502,-0.2902832,-0.7608032,0.6437378,-3.203125,-3.71875,0.9375
1696287349532,-0.30664062,-0.7346802,0.6503296,-2.75,-1.6875,0.25
1696287349577,-0.29785156,-0.7490845,0.6720581,1.703125,-1.171875,0.3125
1696287349607,-0.2927246,-0.7319946,0.6539917,-2.25,-1.65625,0.28125
1696287349652,-0.2993164,-0.7461548,0.6569214,-2.328125,-1.71875,0.640625
1696287349698,-0.2939453,-0.7415161,0.6581421,-2.328125,-2.453125,0.765625
1696287349727,-0.3010254,-0.7476196,0.6637573,-3.234375,-2.59375,0.515625
1696287349772,-0.30004883,-0.7324829,0.6598511,-1.796875,-1.765625,0.046875
1696287349802,-0.2980957,-0.7293091,0.6635132,-1.09375,-2.34375,0.328125
1696287349847,-0.29541016,-0.737854,0.6593628,-1.484375,-2.0,0.5
1696287349892,-0.2998047,-0.73809814,0.6708374,-1.015625,-1.109375,0.46875
1696287349922,-0.30151367,-0.7337036,0.66864014,-1.421875,-2.015625,0.28125
1696287349967,-0.30419922,-0.73809814,0.6588745,-2.09375,-1.421875,0.265625
1696287349997,-0.30078125,-0.73931885,0.65740967,-1.46875,-1.671875,0.359375
1696287350042,-0.30395508,-0.73150635,0.6769409,1.0625,-0.671875,0.03125
1696287350086,-0.29589844,-0.7510376,0.6581421,-1.859375,-2.625,0.71875
1696287350117,-0.30664062,-0.73321533,0.6691284,-2.40625,-1.203125,0.34375
1696287350162,-0.3017578,-0.74176025,0.67474365,1.390625,-1.078125,-0.09375
1696287350207,-0.29907227,-0.7163696,0.65448,-1.40625,-1.40625,0.109375
1696287350237,-0.3071289,-0.7319946,0.66571045,-1.5,-0.703125,0.515625
1696287350282,-0.30493164,-0.73809814,0.6696167,-0.15625,-2.046875,0.46875
1696287350312,-0.3022461,-0.7420044,0.6664429,-0.75,-1.015625,0.046875
1696287350357,-0.30908203,-0.7305298,0.66082764,-0.453125,-1.0625,0.390625
1696287350402,-0.2944336,-0.72857666,0.66400146,-0.109375,-1.34375,0.015625
1696287350432,-0.29711914,-0.72076416,0.6688843,-0.875,-1.328125,0.3125
1696287350477,-0.2998047,-0.7334595,0.6676636,-1.09375,-1.5625,0.6875
1696287350507,-0.30371094,-0.737854,0.6671753,-1.34375,-1.859375,0.4375
1696287350552,-0.30395508,-0.7317505,0.66204834,-1.515625,-1.734375,0.0625
1696287350597,-0.29858398,-0.73150635,0.65545654,-2.046875,-1.46875,0.265625
1696287350627,-0.30810547,-0.7276001,0.6810913,1.96875,-0.28125,0.453125
1696287350672,-0.2902832,-0.7373657,0.64520264,-3.59375,-3.34375,0.140625
1696287350702,-0.3173828,-0.73809814,0.67059326,-0.84375,-0.484375,0.5625
1696287350778,-0.3034668,-0.7280884,0.6708374,0.640625,-1.875,-0.296875
1696287350791,-0.3005371,-0.71759033,0.65740967,-1.109375,-0.0625,0.03125
1696287350821,-0.31396484,-0.7288208,0.6696167,-0.796875,-0.53125,0.109375
1696287350867,-0.30322266,-0.7424927,0.666687,-1.03125,-2.5625,0.28125
1696287350912,-0.30664062,-0.74176025,0.668396,-0.5,-0.953125,0.328125
1696287350942,-0.3095703,-0.73443604,0.6659546,-0.5,-1.15625,-0.15625
1696287350987,-0.30541992,-0.7214966,0.6647339,-0.21875,-1.078125,0.125
1696287351017,-0.3071289,-0.7300415,0.664978,-1.0625,-1.046875,0.359375
1696287351062,-0.31274414,-0.7307739,0.666687,-0.984375,-1.15625,0.390625
1696287351107,-0.31274414,-0.72979736,0.6679077,-0.78125,-1.390625,0.171875
1696287351137,-0.31152344,-0.72613525,0.66448975,-0.9375,-0.828125,0.03125
1696287351182,-0.2980957,-0.72247314,0.6618042,-1.53125,-1.15625,-0.28125
1696287351212,-0.30786133,-0.7337036,0.69036865,2.125,-0.109375,0.46875
1696287351257,-0.2956543,-0.7251587,0.65252686,-4.453125,-2.765625,-0.234375
1696287351302,-0.31469727,-0.7402954,0.6757202,0.390625,-0.796875,0.609375
1696287351332,-0.2993164,-0.72198486,0.6647339,-0.59375,-1.390625,-0.40625
1696287351377,-0.30688477,-0.7246704,0.6571655,-0.5,0.78125,-0.265625
1696287351422,-0.30444336,-0.7251587,0.6679077,0.609375,-0.015625,-0.578125
1696287351451,-0.30859375,-0.7317505,0.6630249,-0.875,-1.03125,-0.359375
1696287351497,-0.30810547,-0.73760986,0.6610718,-0.171875,0.265625,0.03125
1696287351526,-0.30664062,-0.73223877,0.6659546,0.96875,0.0625,-0.390625
1696287351572,-0.2998047,-0.7329712,0.6622925,0.9375,-0.546875,-0.53125
1696287351617,-0.3017578,-0.73223877,0.66156006,-0.28125,0.390625,-0.328125
1696287351647,-0.30419922,-0.7398071,0.6635132,0.453125,0.34375,-0.484375
1696287351692,-0.30786133,-0.7449341,0.6598511,0.546875,0.34375,-0.390625
1696287351722,-0.31323242,-0.7373657,0.6571655,1.125,0.8125,-0.5
1696287351767,-0.29907227,-0.7258911,0.65960693,1.234375,1.3125,-1.078125
1696287351812,-0.2932129,-0.7481079,0.6757202,2.6875,0.46875,-0.046875
1696287351842,-0.29418945,-0.7329712,0.6557007,-2.0625,-0.421875,-0.890625
1696287351887,-0.30688477,-0.7461548,0.6630249,1.390625,1.84375,0.28125
1696287351916,-0.29589844,-0.73760986,0.67059326,0.703125,-0.671875,-0.359375
1696287351962,-0.3076172,-0.7427368,0.6569214,-0.65625,-0.171875,0.09375
1696287352007,-0.2998047,-0.7366333,0.6586304,0.40625,0.28125,-0.3125
1696287352037,-0.29663086,-0.7373657,0.6618042,-0.4375,-0.765625,-0.453125
1696287352082,-0.3083496,-0.74591064,0.65789795,-0.859375,-0.46875,0.3125
1696287352157,-0.29223633,-0.73321533,0.6559448,0.34375,-0.203125,-0.171875
1696287352159,-0.29418945,-0.73516846,0.65789795,0.6875,-0.484375,-0.203125
1696287352202,-0.29760742,-0.7420044,0.66033936,-0.21875,-0.140625,0.125
1696287352232,-0.29589844,-0.74420166,0.65789795,-0.421875,-0.515625,0.421875
1696287352277,-0.29833984,-0.7485962,0.6605835,-1.140625,-0.890625,-0.03125
1696287352322,-0.3005371,-0.7463989,0.65448,-0.90625,-0.71875,0.28125
1696287352352,-0.29589844,-0.7293091,0.66204834,1.125,0.515625,-0.34375
1696287352397,-0.29223633,-0.7542114,0.6613159,-0.0625,-1.65625,0.484375
1696287352427,-0.3005371,-0.7402954,0.64398193,-3.40625,-1.765625,-0.078125
1696287352472,-0.29907227,-0.7444458,0.66741943,0.953125,0.859375,-0.0625
1696287352517,-0.2932129,-0.73443604,0.6522827,0.046875,-0.421875,-0.046875
1696287352547,-0.30541992,-0.74884033,0.66033936,-1.0625,-0.59375,0.375
1696287352592,-0.29516602,-0.74102783,0.6571655,0.484375,-0.765625,-0.125
1696287352621,-0.28808594,-0.7439575,0.66204834,-0.828125,-1.125,-0.09375
1696287352667,-0.30249023,-0.7437134,0.6532593,-1.578125,-1.203125,0.65625
1696287352712,-0.29345703,-0.7312622,0.6539917,-0.296875,-1.15625,0.15625
1696287352742,-0.29614258,-0.7312622,0.65667725,-0.9375,-1.703125,0.03125
1696287352787,-0.29492188,-0.7461548,0.6605835,-0.765625,-0.734375,0.234375
1696287352861,-0.29541016,-0.74224854,0.66156006,-0.75,-1.328125,0.4375
1696287352863,-0.29760742,-0.7439575,0.64959717,-1.578125,-1.625,0.15625
1696287352907,-0.2998047,-0.7476196,0.6547241,-1.59375,-1.640625,0.125
1696287352937,-0.2939453,-0.7324829,0.6618042,0.859375,-0.296875,-0.265625
1696287352982,-0.29882812,-0.7637329,0.66204834,-1.515625,-2.453125,0.75
1696287353027,-0.3046875,-0.73101807,0.64105225,-3.671875,-2.65625,-0.03125
1696287353057,-0.29663086,-0.7456665,0.66693115,0.828125,0.3125,0.03125
1696287353102,-0.29492188,-0.72784424,0.6588745,-0.03125,-0.046875,0.1875
1696287353132,-0.30395508,-0.7503052,0.6647339,-1.484375,-0.703125,0.390625
1696287353177,-0.2861328,-0.737854,0.6547241,0.296875,-0.953125,0.234375
1696287353222,-0.28686523,-0.7432251,0.67230225,-0.375,-1.015625,0.0
1696287353252,-0.30517578,-0.739563,0.6564331,-1.171875,-0.546875,0.515625
1696287353296,-0.2927246,-0.72735596,0.66278076,-0.125,-1.03125,0.234375
1696287353327,-0.2980957,-0.7371216,0.6618042,-0.859375,-1.03125,0.140625
1696287353372,-0.29760742,-0.7319946,0.65960693,-1.0625,-0.234375,0.265625
1696287353417,-0.3010254,-0.74298096,0.6571655,-0.578125,-0.984375,0.125
1696287353447,-0.29541016,-0.7437134,0.65740967,-1.25,-1.078125,0.328125
1696287353492,-0.28759766,-0.7449341,0.6564331,-1.609375,-0.859375,-0.03125
1696287353537,-0.29858398,-0.73687744,0.6713257,1.015625,0.140625,-0.078125
1696287353566,-0.29125977,-0.75494385,0.6588745,-1.546875,-2.453125,0.53125
1696287353612,-0.3083496,-0.7293091,0.6478882,-3.140625,-1.96875,-0.03125
1696287353642,-0.29638672,-0.7390747,0.67303467,1.171875,0.484375,-0.140625
1696287353687,-0.30078125,-0.7251587,0.6625366,-0.828125,-0.59375,0.21875
1696287353732,-0.2993164,-0.74053955,0.6688843,-1.671875,-0.84375,0.296875
1696287353762,-0.29760742,-0.73883057,0.66204834,-0.1875,-1.625,0.171875
1696287353807,-0.2993164,-0.7437134,0.66815186,-0.359375,-1.109375,-0.078125
1696287353837,-0.29296875,-0.736145,0.6605835,-0.484375,-0.546875,0.390625
1696287353882,-0.29760742,-0.73443604,0.66448975,-0.125,-1.421875,0.109375
1696287353927,-0.29956055,-0.7366333,0.6586304,-0.78125,-1.0,0.046875
1696287353957,-0.28979492,-0.74005127,0.6625366,-0.9375,-0.453125,0.203125
1696287354002,-0.29711914,-0.73687744,0.6659546,-0.390625,-0.859375,-0.09375
1696287354047,-0.29785156,-0.74005127,0.66082764,-0.953125,-1.078125,0.203125
1696287354077,-0.29760742,-0.73883057,0.65960693,-0.78125,-0.71875,0.203125
1696287354122,-0.28955078,-0.7276001,0.6679077,0.265625,-0.125,-0.625
1696287354152,-0.2932129,-0.75128174,0.6798706,0.78125,-0.890625,0.484375
1696287354197,-0.29956055,-0.73028564,0.65740967,-3.640625,-2.296875,-0.296875
1696287354242,-0.30297852,-0.74664307,0.66986084,1.046875,0.4375,-0.03125
1696287354272,-0.2915039,-0.7271118,0.65838623,-0.5625,-0.921875,-0.21875
1696287354317,-0.30419922,-0.7415161,0.664978,-1.65625,-0.640625,0.40625
1696287354347,-0.2993164,-0.7371216,0.66522217,0.65625,-0.921875,0.015625
1696287354392,-0.29077148,-0.73321533,0.66571045,-0.546875,-1.296875,0.015625
1696287354437,-0.30395508,-0.73760986,0.6630249,-1.03125,-0.578125,0.578125
1696287354467,-0.2919922,-0.72857666,0.66571045,-0.078125,-1.265625,0.09375
1696287354512,-0.3005371,-0.7390747,0.6605835,-0.671875,-1.421875,0.234375
1696287354542,-0.28637695,-0.73565674,0.65838623,-0.96875,-0.5,0.15625
1696287354587,-0.2993164,-0.7312622,0.66619873,-0.609375,-0.953125,0.09375
1696287354632,-0.29858398,-0.74420166,0.66522217,-0.46875,-1.046875,0.203125
1696287354662,-0.29760742,-0.7312622,0.6622925,-1.109375,-0.6875,0.171875
1696287354707,-0.29101562,-0.7268677,0.65838623,-1.796875,-1.21875,-0.21875
1696287354752,-0.2998047,-0.73223877,0.6832886,0.9375,0.328125,0.296875
1696287354782,-0.28735352,-0.73809814,0.6444702,-3.8125,-3.09375,0.453125
1696287354827,-0.31689453,-0.7373657,0.6625366,-0.75,-0.578125,0.046875
1696287354857,-0.29467773,-0.736145,0.6679077,0.890625,-0.34375,-0.296875
1696287354902,-0.30517578,-0.7307739,0.66156006,-1.34375,-0.40625,0.1875
1696287354947,-0.29833984,-0.7319946,0.6654663,-0.734375,-0.796875,0.109375
1696287354977,-0.28881836,-0.7385864,0.6622925,-0.171875,-1.4375,0.078125
1696287355022,-0.30371094,-0.7407837,0.6725464,0.171875,-0.8125,0.3125
1696287355052,-0.29833984,-0.7390747,0.67108154,0.765625,-0.796875,0.0
1696287355097,-0.29663086,-0.73150635,0.66400146,0.421875,-1.3125,-0.078125
1696287355142,-0.29882812,-0.73883057,0.66986084,-1.28125,-1.53125,0.0625
1696287355171,-0.29492188,-0.73883057,0.6618042,-1.328125,-2.609375,0.234375
1696287355216,-0.30786133,-0.7415161,0.6691284,-1.046875,-2.484375,0.109375
1696287355246,-0.30004883,-0.7371216,0.65545654,-2.265625,-1.46875,0.453125
1696287355292,-0.30371094,-0.73516846,0.6647339,-1.515625,-1.40625,0.3125
1696287355336,-0.3005371,-0.73101807,0.6679077,0.203125,-1.265625,0.21875
1696287355367,-0.29541016,-0.74176025,0.664978,-0.859375,-2.4375,0.71875
1696287355412,-0.2915039,-0.7210083,0.6571655,-3.953125,-2.5625,-0.234375
1696287355457,-0.3059082,-0.7439575,0.6715698,0.9375,-1.4375,0.09375
1696287355487,-0.2993164,-0.71539307,0.6586304,-0.8125,-1.53125,-0.125
1696287355532,-0.2998047,-0.74298096,0.6588745,-1.328125,-0.796875,0.53125
1696287355562,-0.30541992,-0.73931885,0.66864014,0.265625,-1.296875,0.390625
1696287355607,-0.30126953,-0.7276001,0.670105,-1.140625,-1.421875,-0.171875
1696287355652,-0.30859375,-0.74053955,0.65838623,-1.015625,-0.765625,0.546875
1696287355681,-0.3005371,-0.7258911,0.664978,-0.203125,-1.40625,0.03125
1696287355727,-0.29638672,-0.7300415,0.6703491,-1.328125,-1.828125,0.359375
1696287355757,-0.30541992,-0.73638916,0.6696167,-2.78125,-2.234375,1.578125
1696287355802,-0.3083496,-0.72857666,0.6625366,-3.0625,-3.71875,0.78125
1696287355847,-0.30371094,-0.72613525,0.6600952,-1.421875,-2.703125,0.21875
1696287355877,-0.30688477,-0.73028564,0.66815186,-0.9375,-1.34375,0.703125
1696287355922,-0.30786133,-0.7185669,0.6713257,-0.109375,-1.0,0.296875
1696287355952,-0.29858398,-0.741272,0.67596436,0.0625,-2.046875,0.78125
1696287355997,-0.30371094,-0.71759033,0.6586304,-3.640625,-1.78125,-0.015625
1696287356042,-0.31567383,-0.7439575,0.68011475,1.3125,-1.390625,0.265625
1696287356072,-0.29760742,-0.7156372,0.65789795,-1.484375,-2.09375,0.046875
1696287356117,-0.3088379,-0.725647,0.66619873,-1.28125,-0.8125,0.515625
1696287356162,-0.31298828,-0.7258911,0.67645264,1.21875,-1.25,0.234375
1696287356192,-0.30908203,-0.7246704,0.67596436,-0.796875,-0.84375,-0.21875
1696287356238,-0.31054688,-0.7295532,0.6581421,-0.96875,-1.140625,0.21875
1696287356267,-0.31323242,-0.7258911,0.66693115,-0.390625,-1.296875,0.09375
1696287356312,-0.3112793,-0.7210083,0.66448975,-0.671875,-1.515625,0.015625
1696287356358,-0.30444336,-0.7312622,0.6742554,-0.890625,-0.859375,0.375
1696287356387,-0.3149414,-0.7258911,0.66937256,-0.765625,-1.328125,0.125
1696287356431,-0.31323242,-0.73809814,0.66278076,-1.125,-1.0625,0.0625
1696287356462,-0.31689453,-0.73443604,0.6637573,-0.75,-0.953125,0.046875
1696287356507,-0.31225586,-0.72052,0.6727905,0.859375,-0.25,-0.03125
1696287356551,-0.30297852,-0.7341919,0.65960693,-1.078125,-1.65625,0.203125
1696287356582,-0.32983398,-0.7334595,0.66400146,-2.171875,-0.609375,0.3125
1696287356627,-0.3125,-0.7373657,0.6757202,1.015625,-1.234375,0.15625
1696287356657,-0.3112793,-0.71881104,0.65740967,-0.9375,-0.546875,-0.1875
1696287356702,-0.31884766,-0.74468994,0.6676636,-1.0625,-0.015625,0.359375
1696287356747,-0.3154297,-0.73150635,0.6703491,0.953125,-1.0625,-0.046875
1696287356777,-0.30688477,-0.7268677,0.6664429,-0.546875,0.03125,-0.296875
1696287356823,-0.32617188,-0.7283325,0.666687,-0.65625,-0.3125,0.078125
1696287356868,-0.30566406,-0.7246704,0.6708374,0.328125,-0.6875,-0.125
1696287356897,-0.3034668,-0.72540283,0.66448975,-0.671875,-0.765625,-0.125
1696287356942,-0.31201172,-0.7305298,0.666687,-0.3125,-0.015625,-0.078125
1696287356972,-0.3095703,-0.73883057,0.666687,-0.046875,-0.453125,-0.09375
1696287357017,-0.31591797,-0.7398071,0.66571045,-0.59375,-0.4375,-0.140625
1696287357062,-0.30615234,-0.73638916,0.65423584,-0.640625,-0.25,-0.265625
1696287357092,-0.31323242,-0.71881104,0.67596436,3.859375,2.109375,-0.703125
1696287357137,-0.2915039,-0.74664307,0.6491089,-1.03125,-0.703125,-0.296875
1696287357167,-0.31884766,-0.74102783,0.65667725,-0.640625,0.8125,-0.40625
1696287357212,-0.30810547,-0.73516846,0.6720581,3.46875,1.296875,-0.796875
1696287357257,-0.30371094,-0.72052,0.66326904,0.5,0.265625,-0.65625
1696287357286,-0.31030273,-0.7498169,0.6535034,-1.171875,0.171875,0.640625
1696287357332,-0.30371094,-0.74298096,0.66204834,0.21875,-1.1875,-0.046875
1696287357376,-0.29614258,-0.74468994,0.66278076,-0.640625,-1.140625,-0.46875
1696287357407,-0.31030273,-0.74591064,0.65789795,-1.15625,-0.125,0.578125
1696287357452,-0.30078125,-0.73272705,0.65911865,0.5,-0.140625,-0.03125
1696287357481,-0.30493164,-0.7334595,0.6659546,-0.03125,-0.578125,-0.15625
1696287357542,-0.30419922,-0.7354126,0.65911865,-0.421875,0.171875,0.234375
1696287357572,-0.3046875,-0.7420044,0.66204834,-1.0,-0.578125,0.359375
1696287357602,-0.3005371,-0.7329712,0.65618896,-1.0625,-0.78125,-0.03125
1696287357647,-0.30737305,-0.73809814,0.64959717,-1.78125,-0.921875,0.296875
1696287357723,-0.30517578,-0.7319946,0.6708374,0.703125,0.078125,0.359375
1696287357725,-0.2915039,-0.74835205,0.6559448,-2.40625,-2.46875,0.625
1696287357767,-0.3095703,-0.7295532,0.6430054,-3.859375,-2.859375,0.3125
1696287357796,-0.30297852,-0.7354126,0.6679077,0.421875,-0.34375,-0.25
1696287357842,-0.3076172,-0.7280884,0.66278076,-1.15625,-0.390625,0.28125
1696287357872,-0.30737305,-0.74468994,0.6635132,-1.96875,-0.8125,0.625
1696287357917,-0.3005371,-0.741272,0.6637573,-0.484375,-1.25,0.484375
1696287357962,-0.3022461,-0.7346802,0.6720581,-0.828125,-1.15625,-0.1875
1696287357991,-0.29956055,-0.73394775,0.6625366,-1.34375,-0.71875,0.375
1696287358037,-0.29711914,-0.73443604,0.6659546,-0.203125,-0.796875,-0.015625
1696287358112,-0.30615234,-0.7271118,0.66522217,-0.96875,-0.65625,0.09375
1696287358114,-0.30029297,-0.7354126,0.66741943,-0.3125,-0.25,-0.03125
1696287358157,-0.30200195,-0.7373657,0.6664429,-0.1875,-0.734375,0.15625
1696287358187,-0.3076172,-0.72906494,0.6605835,-1.0625,-0.6875,0.078125
1696287358232,-0.3005371,-0.736145,0.6552124,-1.625,-0.6875,-0.046875
1696287358277,-0.3059082,-0.7288208,0.67303467,0.953125,0.53125,0.109375
1696287358307,-0.29296875,-0.7420044,0.66522217,-1.984375,-2.296875,0.46875
1696287358352,-0.30566406,-0.73321533,0.6569214,-3.09375,-1.5625,-0.015625
1696287358382,-0.29882812,-0.7317505,0.67352295,1.515625,0.28125,-0.5
1696287358427,-0.30737305,-0.72442627,0.66693115,-0.734375,-0.4375,0.265625
1696287358472,-0.30200195,-0.72857666,0.66815186,-1.328125,-0.5625,0.296875
1696287358502,-0.29418945,-0.7449341,0.66815186,0.359375,-1.125,0.0
1696287358547,-0.3017578,-0.73565674,0.66741943,-0.375,-0.75,0.125
1696287358576,-0.3005371,-0.7319946,0.6691284,-0.75,-0.484375,0.359375
1696287358622,-0.29785156,-0.7373657,0.66156006,0.1875,-1.1875,0.09375
1696287358667,-0.30371094,-0.7366333,0.668396,-0.71875,-0.890625,0.125
1696287358696,-0.30688477,-0.7334595,0.6637573,-0.953125,-0.65625,0.125
1696287358742,-0.2998047,-0.736145,0.6703491,-0.1875,-0.828125,0.015625
1696287358817,-0.29711914,-0.73272705,0.6586304,-0.734375,-0.921875,0.09375
1696287358819,-0.30395508,-0.7271118,0.6571655,-0.6875,-0.671875,0.203125
1696287358862,-0.3005371,-0.723938,0.66815186,-0.515625,-0.390625,-0.453125
1696287358892,-0.29907227,-0.7468872,0.67962646,2.0,0.1875,0.484375
1696287358937,-0.2932129,-0.73565674,0.6532593,-4.015625,-2.265625,0.015625
1696287358982,-0.30859375,-0.74053955,0.6703491,0.25,0.25,-0.078125
1696287359012,-0.29760742,-0.72369385,0.66156006,-0.09375,-0.796875,-0.140625
1696287359056,-0.29614258,-0.7324829,0.6727905,-1.28125,-0.46875,0.21875
1696287359088,-0.30566406,-0.7300415,0.66400146,-0.359375,-0.75,0.03125
1696287359132,-0.296875,-0.73809814,0.664978,-0.421875,-1.625,0.25
1696287359177,-0.30200195,-0.73394775,0.66082764,-0.78125,-0.828125,0.390625
1696287359207,-0.2993164,-0.7312622,0.66448975,-0.03125,-1.03125,-0.078125
1696287359252,-0.2980957,-0.73028564,0.6642456,0.015625,-1.3125,0.0625
1696287359282,-0.29638672,-0.739563,0.6642456,-0.578125,-0.421875,0.171875
1696287359327,-0.30151367,-0.7383423,0.66815186,-0.59375,-0.734375,0.1875
1696287359372,-0.29541016,-0.73687744,0.66815186,-0.296875,-1.03125,0.09375
1696287359401,-0.2998047,-0.72979736,0.6622925,-1.21875,-0.890625,0.203125
1696287359447,-0.30004883,-0.74664307,0.6642456,-0.734375,-1.046875,0.046875
1696287359491,-0.3010254,-0.72784424,0.6766968,1.15625,0.109375,-0.46875
1696287359521,-0.29125977,-0.7522583,0.67718506,0.171875,-1.296875,0.375
1696287359567,-0.30444336,-0.7214966,0.6613159,-2.9375,-1.5625,-0.4375
1696287359596,-0.29882812,-0.74542236,0.6757202,1.734375,0.203125,-0.09375
1696287359642,-0.30078125,-0.7258911,0.664978,-0.640625,-0.90625,-0.03125
1696287359687,-0.31103516,-0.7424927,0.6720581,-0.921875,-0.375,0.25
1696287359716,-0.29833984,-0.73760986,0.6688843,2.125,-1.25,0.265625
1696287359762,-0.29858398,-0.7390747,0.67523193,0.09375,-1.640625,0.5625
1696287359792,-0.3083496,-0.736145,0.6622925,-1.953125,-1.765625,0.84375
1696287359838,-0.3017578,-0.73760986,0.6642456,-1.359375,-2.15625,0.0625
1696287359882,-0.30151367,-0.73150635,0.6630249,-1.109375,-2.109375,0.625
1696287359912,-0.3017578,-0.73931885,0.66033936,-1.34375,-1.671875,0.671875
1696287359957,-0.30688477,-0.7337036,0.6688843,-0.78125,-1.703125,0.40625
1696287360017,-0.30395508,-0.736145,0.6625366,-1.234375,-1.578125,0.40625
1696287360031,-0.30615234,-0.7276001,0.6605835,-1.953125,-1.625,0.28125
1696287360077,-0.30078125,-0.7437134,0.6635132,-1.25,-2.078125,0.375
1696287360107,-0.30395508,-0.72784424,0.6754761,0.703125,-0.6875,0.234375
1696287360152,-0.29541016,-0.74713135,0.65179443,-2.296875,-2.609375,0.890625
1696287360197,-0.31469727,-0.7293091,0.6676636,-2.828125,-1.421875,0.171875
1696287360227,-0.3046875,-0.73809814,0.67108154,1.3125,-1.140625,0.0
1696287360272,-0.30297852,-0.71588135,0.6539917,-1.09375,-1.09375,-0.046875
1696287360302,-0.3022461,-0.7449341,0.66693115,-0.703125,-0.484375,0.40625
1696287360347,-0.30078125,-0.7385864,0.66937256,0.171875,-1.90625,0.421875
1696287360391,-0.30322266,-0.7354126,0.67474365,-1.3125,-1.609375,-0.0625
1696287360422,-0.3095703,-0.7366333,0.6679077,-1.375,-1.640625,0.5625
1696287360467,-0.29907227,-0.7251587,0.666687,-0.5625,-2.140625,0.21875
1696287360496,-0.30078125,-0.73223877,0.6635132,-1.09375,-2.28125,0.03125
1696287360542,-0.30981445,-0.7337036,0.66693115,-1.875,-2.125,0.84375
1696287360587,-0.3088379,-0.7319946,0.67303467,-1.359375,-2.09375,0.484375
1696287360617,-0.3125,-0.7349243,0.6605835,-1.71875,-2.4375,0.390625
1696287360662,-0.31176758,-0.7144165,0.66741943,-1.28125,-1.421875,0.265625
1696287360707,-0.30810547,-0.71661377,0.6569214,-2.609375,-2.25,0.421875
1696287360737,-0.3088379,-0.72906494,0.6901245,1.28125,-1.03125,0.953125
1696287360781,-0.3005371,-0.72906494,0.6432495,-5.390625,-3.4375,0.15625
1696287360812,-0.32104492,-0.73321533,0.67889404,-0.0625,-1.328125,0.40625
1696287360857,-0.30664062,-0.7185669,0.66204834,-0.4375,-2.171875,-0.171875
1696287360902,-0.31933594,-0.71661377,0.66082764,-0.96875,-0.65625,0.1875
1696287360931,-0.31567383,-0.7185669,0.6732788,-0.5,-0.625,0.015625
1696287360977,-0.31811523,-0.73101807,0.66082764,-1.625,-1.78125,0.0625
1696287361007,-0.31396484,-0.7337036,0.66864014,-0.4375,-0.796875,0.046875
1696287361052,-0.3095703,-0.72125244,0.6654663,0.34375,-0.53125,-0.234375
1696287361096,-0.31225586,-0.72857666,0.6676636,0.1875,-0.875,-0.015625
1696287361127,-0.30493164,-0.72735596,0.6635132,-1.21875,-0.9375,0.171875
1696287361172,-0.31347656,-0.73101807,0.66815186,-0.328125,-0.453125,0.15625
1696287361202,-0.3161621,-0.72857666,0.6676636,-1.015625,-1.03125,0.1875
1696287361247,-0.3149414,-0.72247314,0.6635132,-0.84375,-0.71875,-0.3125
1696287361292,-0.30664062,-0.73809814,0.6600952,-0.640625,-0.484375,-0.015625
1696287361321,-0.3173828,-0.7136841,0.6810913,2.3125,0.65625,-0.203125
1696287361366,-0.29956055,-0.7424927,0.651062,-1.421875,-1.84375,0.015625
1696287361414,-0.31762695,-0.7300415,0.6713257,-1.578125,-0.09375,-0.0625
1696287361442,-0.3088379,-0.7334595,0.66693115,2.765625,0.3125,-0.640625
1696287361489,-0.30322266,-0.7178345,0.66400146,1.4375,0.875,-0.84375
1696287361516,-0.31884766,-0.7451782,0.65911865,-1.1875,0.078125,0.65625
1696287361564,-0.31518555,-0.7346802,0.6696167,1.515625,0.0,-0.8125
1696287361608,-0.30737305,-0.72857666,0.66326904,0.828125,0.671875,-1.25
1696287361638,-0.30981445,-0.7312622,0.66204834,0.375,0.78125,-0.265625
1696287361684,-0.31054688,-0.73394775,0.66619873,1.546875,0.421875,-0.46875
1696287361711,-0.30981445,-0.7349243,0.66082764,0.609375,0.046875,-0.265625
1696287361757,-0.30639648,-0.73931885,0.6569214,-0.203125,-0.046875,0.015625
1696287361802,-0.31152344,-0.737854,0.66693115,-0.1875,-0.140625,-0.171875
1696287361834,-0.3112793,-0.74102783,0.6576538,-0.375,-0.703125,0.015625
1696287361879,-0.30786133,-0.72369385,0.65008545,-0.53125,-0.171875,-0.140625
1696287361907,-0.30566406,-0.7202759,0.6576538,-0.328125,0.359375,-0.28125
1696287361954,-0.3112793,-0.7371216,0.6766968,2.40625,1.015625,0.59375
1696287361998,-0.30078125,-0.7383423,0.6522827,-4.46875,-2.296875,0.0
