# Sensor type: Respeck
# Activity type: Descending stairs
# Activity subtype: Normal
# Subject id: s2094833
# Notes: 
timestamp,accel_x,accel_y,accel_z,gyro_x,gyro_y,gyro_z
1696286763632,-0.25219727,-1.822815,0.54193115,-21.359375,1.75,-7.859375
1696286763663,0.13574219,-1.6157837,0.46307373,8.09375,22.390625,-8.46875
1696286763706,0.16381836,-1.1377563,0.38079834,3.984375,-9.515625,-3.5625
1696286763736,-0.06347656,-1.0437622,0.2218628,-4.421875,-2.53125,2.140625
1696286763783,-0.096191406,-0.8218384,0.14715576,17.015625,4.6875,-2.484375
1696286763827,0.028320312,-0.6338501,0.11834717,5.90625,7.6875,2.34375
1696286763857,0.040771484,-0.66851807,0.11956787,3.0,6.71875,0.09375
1696286763902,0.0056152344,-0.76519775,0.062683105,-3.25,4.5625,6.40625
1696286763933,-9.765625E-4,-0.7439575,0.1329956,-2.75,1.625,3.34375
1696286763977,-0.005126953,-0.7293091,0.19476318,1.4375,6.15625,0.390625
1696286764022,-0.056152344,-0.64385986,0.19793701,-2.5625,3.234375,3.546875
1696286764052,0.0075683594,-0.7678833,0.16693115,-8.4375,-4.3125,5.4375
1696286764096,0.110839844,-0.8394165,0.31365967,-16.765625,-1.109375,4.171875
1696286764172,-0.13916016,-0.87579346,0.26849365,-3.953125,0.90625,-1.171875
1696286764174,-0.1965332,-0.831604,0.20501709,-7.046875,4.125,-4.0625
1696286764218,0.06933594,-0.76763916,0.09320068,4.734375,-9.203125,-12.96875
1696286764247,0.27270508,-0.9351196,0.35491943,-10.796875,5.1875,1.21875
1696286764292,0.19165039,-1.6870728,0.3012085,-24.1875,10.296875,7.8125
1696286764337,0.57250977,-1.8777466,0.8029175,-0.46875,10.6875,-0.53125
1696286764367,-0.11669922,-1.3318481,0.42352295,0.109375,0.3125,-4.109375
1696286764412,0.32177734,-1.3062134,0.53411865,-7.296875,-0.375,-4.0
1696286764442,0.31176758,-1.2229614,0.47894287,8.3125,-0.28125,-0.21875
1696286764489,0.067871094,-0.84039307,0.36175537,20.4375,-3.625,3.28125
1696286764534,0.08569336,-0.6350708,0.2658081,2.875,-8.5625,3.15625
1696286764562,0.15942383,-0.65997314,0.23895264,-8.515625,-14.046875,3.84375
1696286764610,0.09301758,-0.66656494,0.32391357,-9.515625,-9.265625,-1.140625
1696286764637,0.059570312,-0.52789307,0.18133545,6.046875,-2.015625,-7.359375
1696286764682,0.12182617,-0.54766846,0.34124756,-3.15625,-12.28125,-6.625
1696286764730,-0.07739258,-0.6577759,0.18450928,9.96875,-14.59375,-9.3125
1696286764775,0.04711914,-0.7451782,0.29266357,16.984375,3.71875,-8.15625
1696286764819,0.01928711,-0.84503174,0.20672607,6.640625,-5.40625,-6.34375
1696286764847,0.064453125,-0.97076416,0.38494873,8.921875,-6.53125,-10.09375
1696286764877,0.005126953,-1.0249634,0.23358154,-0.4375,-3.609375,-7.328125
1696286764924,0.24511719,-1.1983032,0.11199951,-3.3125,-17.203125,10.984375
1696286764952,0.4819336,-1.4837036,0.20526123,-14.609375,-10.921875,21.15625
1696286764998,-0.44604492,-1.6238403,0.651062,9.0625,15.4375,-17.609375
1696286765044,-0.03100586,-1.4888306,0.24188232,-7.1875,13.34375,5.796875
1696286765072,0.5085449,-1.1460571,0.28778076,15.171875,-2.0,11.0
1696286765120,-0.15112305,-1.0305786,0.2994995,6.96875,-4.375,6.453125
1696286765147,-0.16845703,-0.8621216,0.2255249,11.671875,3.59375,2.09375
1696286765195,0.083984375,-0.7178345,0.124694824,4.75,3.953125,0.5
1696286765237,0.13427734,-0.87628174,0.17694092,-14.484375,-10.390625,3.140625
1696286765267,-0.05102539,-0.8328247,0.26409912,-2.890625,-9.265625,3.84375
1696286765314,-0.024902344,-0.76153564,0.22235107,-8.296875,-6.921875,0.46875
1696286765358,-0.012207031,-0.6812134,0.215271,-7.453125,-7.640625,-2.34375
1696286765387,-0.13256836,-0.6304321,0.19207764,-10.609375,-8.015625,-0.25
1696286765434,-0.01928711,-0.66607666,0.12982178,-9.90625,-1.53125,-0.578125
1696286765462,0.13305664,-0.78448486,0.25408936,-13.625,2.0,7.65625
1696286765510,-0.020996094,-0.9212036,0.3012085,-11.96875,-4.015625,1.859375
1696286765554,7.324219E-4,-0.88067627,0.27850342,-0.328125,0.21875,3.09375
1696286765582,0.04663086,-0.84552,0.2296753,-4.328125,-7.171875,0.140625
1696286765629,0.16625977,-1.034729,0.30511475,-4.453125,-1.265625,0.625
1696286765657,0.5559082,-1.3533325,0.46624756,-16.578125,-1.46875,17.421875
1696286765704,0.18603516,-1.5278931,0.49969482,2.96875,-8.109375,0.859375
1696286765748,0.011474609,-1.4187622,0.51068115,5.328125,1.109375,-0.953125
1696286765776,0.3232422,-1.2312622,0.4882202,7.84375,-6.1875,1.171875
1696286765824,0.072509766,-1.1995239,0.44866943,14.21875,-6.109375,-3.015625
1696286765853,0.046875,-0.94488525,0.39935303,15.34375,2.5625,1.296875
1696286765900,-0.05834961,-0.74542236,0.22528076,9.890625,5.546875,5.5
1696286765944,0.095947266,-0.67974854,0.17669678,6.3125,5.96875,2.21875
1696286765971,0.2043457,-0.6567993,0.24798584,-5.203125,5.125,1.859375
1696286766019,0.16333008,-0.62091064,0.27386475,-12.609375,1.328125,-1.484375
1696286766063,0.07714844,-0.61309814,0.2609253,-5.921875,-4.21875,-2.890625
1696286766093,0.09838867,-0.63287354,0.30926514,-4.71875,-7.890625,-5.703125
1696286766139,0.0637207,-0.7695923,0.22894287,4.28125,-17.078125,-4.640625
1696286766168,0.2277832,-0.89019775,0.48919678,4.015625,-9.953125,-1.75
1696286766211,-0.064453125,-0.8987427,0.32855225,11.515625,-5.375,-4.75
1696286766257,0.12231445,-0.954895,0.23358154,-0.796875,-8.921875,-0.953125
1696286766287,0.40429688,-1.0535278,0.29193115,-7.359375,-13.0,1.03125
1696286766334,0.079833984,-1.4649048,0.32806396,-29.765625,-11.21875,16.03125
1696286766362,-0.25512695,-1.7588501,0.3522339,-2.09375,-3.1875,-6.90625
1696286766408,0.3474121,-1.373352,0.46453857,-6.640625,-5.125,0.46875
1696286766454,0.03955078,-1.2608032,0.33685303,-9.125,4.65625,-1.5
1696286766482,-0.1274414,-1.0200806,0.32000732,3.53125,0.78125,-0.078125
1696286766529,0.0073242188,-0.72052,0.20184326,13.546875,-11.453125,-1.640625
1696286766557,-0.022460938,-0.63287354,0.1281128,5.65625,-5.265625,-1.46875
1696286766605,4.8828125E-4,-0.6802368,0.11956787,-1.8125,-2.203125,-0.078125
1696286766648,0.035888672,-0.6577759,0.230896,1.09375,-5.078125,-0.515625
1696286766679,-0.055908203,-0.69195557,0.22625732,-14.484375,-4.21875,-1.3125
1696286766725,-0.03149414,-0.76104736,0.21136475,-13.109375,-5.65625,0.4375
1696286766798,-0.048339844,-0.8621216,0.26849365,-18.828125,-1.109375,2.984375
1696286766803,-0.036376953,-0.8389282,0.2772827,-1.53125,-0.484375,-7.25
1696286766841,-0.06542969,-0.66656494,0.3444214,1.671875,2.359375,-0.984375
1696286766873,-0.039794922,-0.8335571,0.18743896,-12.734375,-8.34375,-8.5
1696286766918,0.36376953,-1.1121216,0.20257568,19.921875,-12.5625,3.53125
1696286766963,0.45361328,-1.4275513,0.7069702,-0.390625,8.65625,16.640625
1696286766992,-0.43432617,-1.3652954,0.74017334,-0.515625,9.28125,-9.921875
1696286767040,0.20239258,-1.491272,0.48602295,2.5,-3.703125,0.875
1696286767068,0.24658203,-1.2993774,0.4418335,2.109375,0.34375,5.578125
1696286767112,0.19824219,-1.1699829,0.48529053,7.71875,-4.578125,-0.078125
1696286767158,0.16235352,-0.98223877,0.5128784,11.953125,-11.421875,5.890625
1696286767188,0.061035156,-0.76226807,0.3065796,9.875,-17.078125,5.34375
1696286767233,0.064697266,-0.63165283,0.27435303,8.390625,-21.0,2.640625
1696286767262,0.0715332,-0.6646118,0.32196045,0.921875,-23.5,-0.46875
1696286767310,0.05102539,-0.62677,0.29388428,1.828125,-16.796875,-6.078125
1696286767353,0.11767578,-0.5701294,0.28070068,-3.03125,-22.34375,-5.34375
1696286767384,0.057861328,-0.69073486,0.4689331,-0.6875,-23.328125,-4.34375
1696286767430,-0.044433594,-0.87457275,0.4076538,-2.59375,-36.40625,1.375
1696286767474,0.08251953,-0.8858032,0.38909912,-2.234375,-38.0625,5.578125
1696286767502,-0.056640625,-0.86187744,0.49822998,4.03125,-37.390625,3.6875
1696286767549,-0.30151367,-0.8464966,0.5541382,-7.234375,-36.546875,-3.953125
1696286767577,-0.013916016,-1.0840454,0.2831421,-22.703125,-36.59375,1.5625
1696286767623,0.5007324,-1.4348755,0.2687378,-22.125,-17.71875,13.375
1696286767669,-0.046875,-1.5020142,0.46990967,-9.28125,-25.140625,9.390625
1696286767697,-0.072021484,-1.2258911,0.63812256,0.359375,-26.28125,5.9375
1696286767742,0.024169922,-1.1062622,0.47869873,2.984375,-32.921875,8.515625
1696286767771,0.0925293,-1.0977173,0.27386475,18.578125,-37.328125,25.1875
1696286767819,0.025878906,-0.8538208,0.28485107,32.765625,-27.875,27.8125
1696286767863,-0.07861328,-0.7554321,0.26654053,12.359375,-35.46875,25.5
1696286767892,-0.10180664,-0.770813,0.24920654,11.015625,-29.125,18.375
1696286767941,-0.072265625,-0.71099854,0.27313232,10.828125,-27.96875,14.25
1696286767982,0.0234375,-0.81329346,0.3012085,4.9375,-21.84375,14.71875
1696286768012,0.12036133,-0.9656372,0.3209839,-3.4375,-26.1875,19.296875
1696286768058,-7.324219E-4,-1.1362915,0.5126343,-7.765625,-26.203125,18.625
1696286768087,-0.26123047,-1.0840454,0.54193115,0.6875,-30.5625,11.125
1696286768134,0.05517578,-1.086731,0.5001831,-5.203125,-41.296875,11.40625
1696286768178,0.3486328,-1.2705688,0.35516357,-8.25,-50.09375,18.0625
1696286768207,0.7062988,-1.2700806,0.20404053,10.671875,-61.140625,26.859375
1696286768253,0.49804688,-0.7666626,0.2543335,33.953125,-43.765625,27.09375
1696286768282,0.052734375,-0.8596802,0.1942749,21.1875,-53.296875,21.4375
1696286768327,0.24658203,-1.0830688,0.24041748,13.5625,-45.125,15.828125
1696286768371,0.3088379,-0.93414307,0.26971436,8.515625,-35.875,11.546875
1696286768405,0.12133789,-0.8115845,0.25238037,12.4375,-37.859375,9.09375
1696286768446,0.20898438,-0.6983032,0.293396,12.546875,-30.1875,3.140625
1696286768478,0.27661133,-0.7805786,0.29632568,8.75,-30.671875,5.421875
1696286768524,0.27148438,-0.85284424,0.32025146,10.15625,-31.921875,7.21875
1696286768569,0.19213867,-0.7608032,0.27972412,12.1875,-33.28125,5.078125
1696286768597,0.24584961,-0.7793579,0.3949585,9.375,-32.953125,5.0
1696286768645,0.13989258,-0.85113525,0.40496826,5.421875,-35.65625,1.65625
1696286768687,0.03100586,-1.006897,0.2765503,8.53125,-34.421875,-7.546875
1696286768718,0.080322266,-1.0484009,0.49310303,6.359375,-24.546875,-17.578125
1696286768764,-0.25683594,-1.0696411,0.4142456,-0.65625,-20.578125,-27.90625
1696286768793,0.296875,-1.1826782,0.27996826,-3.484375,-11.109375,-17.625
1696286768839,0.6123047,-1.217102,0.38006592,-15.15625,-30.609375,0.453125
1696286768883,0.3984375,-0.9915161,0.13568115,2.609375,-16.4375,10.703125
1696286768911,0.022705078,-0.67315674,0.049743652,4.8125,-26.828125,6.09375
1696286768959,0.26586914,-0.8887329,0.17401123,-6.84375,-43.671875,12.03125
1696286768988,0.18823242,-1.2546997,0.1828003,-2.15625,-48.25,19.21875
1696286769034,0.076416016,-0.940979,0.16473389,18.5,-39.625,17.265625
1696286769078,-0.047607422,-0.74591064,0.1317749,7.9375,-42.828125,15.15625
1696286769107,0.15405273,-0.96661377,0.2814331,-0.921875,-47.5,18.875
1696286769154,0.06616211,-1.0310669,0.2975464,2.984375,-49.0,16.046875
1696286769182,-0.07543945,-0.92388916,0.24456787,-0.3125,-45.5,10.3125
1696286769229,0.0068359375,-0.88482666,0.34320068,1.0625,-37.546875,11.609375
1696286769272,0.049560547,-0.8953247,0.34295654,-2.421875,-36.3125,11.8125
1696286769301,-0.013916016,-0.94854736,0.26507568,-7.5625,-38.671875,7.53125
1696286769349,0.04296875,-0.9517212,0.34344482,-4.6875,-31.40625,7.453125
1696286769394,0.010009766,-0.928772,0.2387085,-1.1875,-40.96875,9.734375
1696286769422,0.23950195,-0.9163208,0.22406006,4.09375,-55.15625,13.84375
1696286769469,0.5625,-1.1177368,0.5150757,-10.3125,-51.703125,15.3125
1696286769497,0.3034668,-1.1577759,0.1552124,27.15625,-47.4375,21.5625
1696286769544,0.02734375,-0.9194946,0.39764404,11.671875,-35.703125,10.109375
1696286769589,0.06591797,-1.1243286,0.38739014,-0.796875,-29.1875,7.4375
1696286769618,0.30395508,-1.0132446,0.44989014,5.546875,-27.765625,0.234375
1696286769663,0.2241211,-0.8467407,0.42230225,7.25,-19.75,5.734375
1696286769691,0.08959961,-0.704895,0.3048706,8.5625,-22.546875,4.390625
1696286769739,0.20092773,-0.72442627,0.29925537,1.015625,-22.3125,4.640625
1696286769784,0.25463867,-0.78131104,0.38690186,0.875,-23.5,10.375
1696286769812,0.19018555,-0.78497314,0.3883667,-1.53125,-23.34375,10.375
1696286769859,-0.026855469,-0.67437744,0.2543335,4.734375,-18.46875,2.71875
1696286769887,0.03100586,-0.6987915,0.43084717,-10.359375,-16.375,-10.03125
1696286769934,0.039794922,-0.7163696,0.2982788,3.90625,-4.328125,-11.09375
1696286769980,0.22973633,-0.68585205,0.43988037,-3.5625,-18.125,-4.859375
1696286770007,0.09375,-0.79937744,0.51971436,-9.484375,-15.703125,-7.484375
1696286770054,-0.10253906,-0.9734497,0.5258179,-7.703125,-10.71875,-5.796875
1696286770097,0.12207031,-0.8093872,0.42938232,11.265625,-2.6875,-10.4375
1696286770127,0.1381836,-0.7288208,0.39569092,15.78125,-15.53125,-13.3125
1696286770174,0.047851562,-0.95758057,0.08319092,15.53125,-10.84375,-0.3125
1696286770201,0.5241699,-1.295227,0.16375732,-6.6875,-14.765625,17.765625
1696286770250,0.41357422,-2.0,0.4130249,-9.0625,0.265625,22.234375
1696286770292,-0.79174805,-1.4646606,0.59368896,2.109375,15.359375,-22.203125
1696286770322,0.029296875,-1.093811,0.3895874,-18.515625,20.28125,-16.984375
1696286770368,0.6074219,-1.1065063,0.2772827,0.09375,14.265625,8.109375
1696286770396,-0.3425293,-0.89385986,0.23406982,10.390625,14.484375,2.484375
1696286770444,-0.12695312,-0.7241821,0.06976318,16.375,9.546875,-10.140625
1696286770488,0.17382812,-0.7234497,0.1359253,4.46875,13.828125,0.890625
1696286770517,0.047851562,-0.736145,0.11859131,7.5,7.4375,6.09375
1696286770564,0.025146484,-0.72003174,0.18695068,-3.4375,-2.984375,0.046875
1696286770591,-0.107666016,-0.64508057,0.21844482,-1.890625,-2.34375,-5.046875
1696286770639,-0.12597656,-0.62701416,0.1317749,-5.3125,-0.09375,3.84375
1696286770684,-0.052490234,-0.85284424,0.2230835,-24.59375,-6.75,1.015625
1696286770712,-0.057373047,-0.9631958,0.31756592,-6.359375,5.03125,-11.140625
1696286770760,-0.115478516,-0.70562744,0.24261475,-5.796875,7.109375,-5.53125
1696286770802,0.049560547,-0.81378174,0.08782959,-13.296875,-12.421875,-11.53125
1696286770832,0.4453125,-1.1287231,0.27044678,3.9375,2.828125,-2.09375
1696286770879,0.501709,-1.6182251,0.6954956,-8.625,1.25,8.46875
1696286770908,-0.22363281,-1.4436646,0.7567749,-10.640625,2.109375,-7.984375
1696286770955,0.10522461,-1.5100708,0.7523804,6.765625,1.625,0.875
1696286770999,0.123535156,-1.1887817,0.4550171,1.140625,2.859375,4.765625
1696286771027,0.02758789,-1.003479,0.37469482,11.046875,-0.96875,-4.796875
1696286771075,0.2709961,-0.90802,0.44207764,18.0,4.453125,11.796875
1696286771103,0.10839844,-0.6526489,0.33294678,12.4375,-1.5,3.53125
1696286771149,0.022460938,-0.5808716,0.2765503,4.96875,-1.765625,7.953125
1696286771192,-0.024902344,-0.5498657,0.28607178,5.484375,2.765625,-7.46875
1696286771221,0.036376953,-0.50177,0.23114014,7.84375,14.484375,-8.84375
1696286771269,0.13867188,-0.53131104,0.3493042,7.78125,0.703125,-4.71875
1696286771314,0.040283203,-0.7041626,0.24700928,12.03125,-14.265625,-2.46875
1696286771342,0.15039062,-0.8284302,0.23944092,13.609375,-5.515625,3.9375
1696286771389,0.14331055,-0.80548096,0.45037842,6.0625,-9.515625,3.421875
1696286771417,-0.18701172,-1.109436,0.12908936,-14.8125,-18.078125,13.59375
1696286771463,0.5378418,-1.3960571,0.16790771,-25.171875,-14.96875,18.359375
1696286771509,0.29541016,-1.9590454,0.48284912,-8.40625,-0.84375,14.28125
1696286771537,-0.3564453,-1.2998657,0.26116943,-12.5625,-14.953125,-5.46875
1696286771584,0.12060547,-1.4246216,0.5153198,-3.265625,8.8125,-10.65625
1696286771659,0.107666016,-1.3340454,0.38641357,-2.5,11.78125,-0.03125
1696286771665,-0.13989258,-0.90289307,0.24700928,16.40625,13.265625,-3.40625
1696286771702,0.0014648438,-0.7334595,0.19647217,5.421875,14.375,-3.171875
1696286771732,-0.0041503906,-0.72613525,0.105651855,3.140625,17.140625,2.328125
1696286771777,0.13623047,-0.6946411,0.10809326,3.328125,10.421875,2.484375
1696286771807,0.041748047,-0.74346924,0.14959717,0.625,5.078125,-3.234375
1696286771855,-0.056640625,-0.75860596,0.22723389,4.203125,6.109375,-3.65625
1696286771899,-0.022216797,-0.5562134,0.17913818,8.484375,-0.28125,-6.609375
1696286771928,-0.048339844,-0.50079346,0.1437378,-7.421875,-7.984375,3.53125
1696286771973,0.03955078,-0.5930786,0.13421631,-7.03125,-9.609375,-0.078125
1696286772050,-0.18237305,-0.6392212,0.30194092,-6.4375,6.75,2.03125
1696286772053,-0.012207031,-0.7908325,0.0099487305,-21.0625,-3.40625,-5.96875
1696286772092,0.53271484,-1.2332153,0.39886475,-14.828125,8.09375,-9.171875
1696286772123,0.95166016,-2.0,0.9125366,2.84375,1.703125,25.78125
1696286772170,-0.6586914,-1.3880005,0.7057495,0.109375,-3.15625,-23.421875
1696286772212,0.091796875,-1.828186,0.40325928,8.328125,7.46875,14.046875
1696286772242,0.5695801,-1.3880005,0.41326904,16.1875,-2.796875,-9.546875
1696286772289,-0.015625,-0.9859009,0.33807373,16.984375,-5.015625,8.109375
1696286772334,0.0078125,-0.7529907,0.23699951,14.921875,-4.703125,5.09375
1696286772362,0.15649414,-0.5877075,0.19720459,6.28125,-2.46875,2.03125
1696286772410,0.13452148,-0.52789307,0.24578857,2.21875,4.34375,-1.609375
1696286772436,0.041259766,-0.48931885,0.13348389,-5.328125,1.609375,-4.5625
1696286772484,0.1796875,-0.46466064,0.19671631,3.40625,7.671875,-5.234375
1696286772512,0.05834961,-0.59552,0.20794678,-1.53125,4.6875,-3.453125
1696286772559,-0.055419922,-0.7214966,0.17596436,19.890625,-1.125,-0.484375
1696286772604,0.23046875,-0.77227783,0.24310303,9.21875,-0.9375,-2.96875
1696286772632,-0.041748047,-0.92266846,0.41937256,2.859375,2.921875,-1.09375
1696286772679,-0.16210938,-0.958313,0.09539795,15.703125,-4.59375,10.03125
1696286772754,0.66967773,-1.1814575,0.11663818,-26.046875,-5.234375,12.828125
1696286772759,0.16577148,-1.9690552,0.38861084,-35.28125,-18.453125,5.6875
1696286772797,-0.06713867,-1.7752075,0.46868896,22.65625,-3.734375,-7.375
1696286772827,-0.16918945,-1.1177368,0.32269287,-1.78125,-6.4375,-5.625
1696286772874,0.18579102,-1.5178833,0.31048584,-25.171875,-7.078125,3.453125
1696286772919,0.091552734,-1.2217407,0.37200928,5.1875,0.125,3.484375
1696286772947,-0.37646484,-0.8567505,0.11248779,7.359375,11.09375,-5.65625
1696286772993,0.021240234,-0.6814575,0.09539795,11.578125,16.75,-6.375
1696286773021,0.20263672,-0.63653564,0.08685303,4.203125,13.234375,0.59375
1696286773069,0.08251953,-0.66363525,0.16595459,0.625,6.15625,5.71875
1696286773114,-0.04711914,-0.58673096,0.1630249,-2.03125,2.453125,-3.71875
1696286773142,-0.1262207,-0.64801025,0.13934326,-9.875,2.21875,1.3125
1696286773188,0.057128906,-0.67974854,0.19573975,-0.4375,2.828125,-1.3125
1696286773216,-0.019042969,-0.7329712,0.27850342,-6.921875,1.875,0.265625
1696286773264,0.01977539,-0.7896118,0.27874756,-3.109375,2.84375,-0.59375
1696286773309,0.015136719,-0.76226807,0.3529663,-9.9375,-1.125,-1.828125
1696286773338,-0.07324219,-0.9265747,0.30975342,-40.125,1.484375,-3.1875
1696286773384,0.25610352,-1.4382935,0.12957764,-2.359375,3.109375,-5.578125
1696286773427,0.6525879,-1.6084595,0.81292725,-9.203125,-9.46875,11.203125
1696286773458,-0.41674805,-1.4307251,0.3529663,12.859375,-0.25,-4.53125
1696286773503,0.25878906,-1.3965454,0.5446167,-0.359375,-3.0625,-5.40625
1696286773532,0.44433594,-1.2947388,0.49261475,4.921875,-1.53125,5.75
1696286773578,0.01977539,-1.0547485,0.29852295,14.90625,-7.5625,0.546875
1696286773623,0.05444336,-0.77349854,0.29730225,11.25,-5.6875,0.859375
1696286773653,0.14086914,-0.7366333,0.29974365,0.03125,-2.671875,3.0
1696286773697,0.05493164,-0.72613525,0.29241943,3.09375,0.203125,-1.4375
1696286773727,0.045410156,-0.6223755,0.30389404,6.4375,-4.515625,-4.578125
1696286773774,0.16333008,-0.70880127,0.3270874,9.046875,1.265625,-0.078125
1696286773817,0.14453125,-0.66607666,0.27191162,0.90625,-18.328125,1.265625
1696286773848,0.0,-0.78253174,0.3114624,-4.296875,-34.03125,-1.5
1696286773895,0.07324219,-0.89801025,0.35321045,5.109375,-36.78125,-7.453125
1696286773938,-0.0146484375,-0.8870239,0.36102295,10.609375,-34.265625,-1.859375
1696286773967,-0.078125,-0.89263916,0.40252686,15.15625,-27.359375,-0.15625
1696286774013,-0.018310547,-0.864563,0.5158081,-5.703125,-39.5,-6.25
1696286774043,-0.26391602,-0.8701782,0.46185303,-2.0,-33.8125,-9.640625
1696286774089,-0.03125,-0.95758057,0.23797607,-15.125,-28.21875,5.078125
1696286774134,0.4177246,-1.2432251,0.10784912,-21.59375,-38.671875,23.078125
1696286774162,0.46069336,-1.7932739,0.051940918,-22.46875,-24.96875,30.359375
1696286774207,-0.19262695,-1.5117798,0.5475464,-10.59375,-25.84375,9.578125
1696286774237,-0.17236328,-1.1450806,0.49163818,6.703125,-28.421875,6.4375
1696286774285,0.3935547,-0.9927368,0.31756592,17.09375,-43.71875,18.953125
1696286774327,0.0017089844,-0.8225708,0.25164795,21.78125,-36.359375,21.953125
1696286774357,-0.09838867,-0.67193604,0.12786865,23.5,-50.984375,18.515625
1696286774404,0.08666992,-0.7481079,0.2111206,11.40625,-47.109375,19.296875
1696286774432,-0.033935547,-0.78326416,0.21820068,3.1875,-44.8125,17.484375
1696286774479,-0.088378906,-0.8406372,0.21575928,-1.875,-39.390625,10.203125
1696286774524,0.025634766,-0.991272,0.30755615,-16.0625,-35.359375,11.609375
1696286774552,-0.15820312,-1.0652466,0.46258545,-4.453125,-35.21875,5.578125
1696286774599,-0.15795898,-1.1133423,0.39935303,-7.140625,-41.546875,3.5
1696286774643,0.5263672,-1.364563,0.3348999,-5.921875,-41.828125,12.75
1696286774673,0.8457031,-1.1367798,0.26068115,23.0625,-55.234375,24.5625
1696286774719,0.29541016,-0.7883911,0.22650146,4.375,-55.65625,25.234375
1696286774748,-0.2697754,-1.0567017,0.26116943,6.5625,-48.21875,28.515625
1696286774793,0.2788086,-1.0440063,0.35760498,14.6875,-41.578125,15.015625
1696286774837,0.1496582,-0.8999634,0.33807373,10.296875,-35.546875,4.984375
1696286774867,0.118896484,-0.7173462,0.3007202,9.828125,-29.3125,9.625
1696286774914,0.25756836,-0.69122314,0.35565186,3.71875,-29.34375,10.125
1696286774942,0.19970703,-0.8682251,0.37957764,-2.984375,-29.3125,6.578125
1696286774988,0.25317383,-0.89434814,0.39959717,-0.765625,-27.671875,8.0
1696286775033,0.26123047,-0.7559204,0.41375732,5.875,-24.859375,7.46875
1696286775062,0.1550293,-0.7905884,0.40057373,4.96875,-29.625,9.96875
1696286775108,0.09692383,-0.8101196,0.34002686,12.25,-25.328125,6.28125
1696286775137,0.24511719,-0.8604126,0.30096436,12.484375,-21.109375,6.453125
1696286775183,0.22192383,-0.93756104,0.59783936,-3.765625,-28.4375,-2.328125
1696286775229,-0.19238281,-1.0654907,0.5910034,-4.21875,-18.734375,-16.25
1696286775257,0.026123047,-0.96832275,0.5519409,-2.1875,-6.34375,-17.84375
1696286775303,0.14868164,-1.0669556,0.51312256,-19.484375,-14.34375,-12.0625
1696286775346,0.6086426,-1.28302,0.447937,-9.671875,-26.921875,0.375
1696286775375,0.3557129,-1.0747681,0.29559326,0.828125,-21.828125,5.03125
1696286775424,-0.087890625,-0.65948486,0.07269287,21.15625,-24.640625,-0.328125
1696286775452,0.2770996,-0.8027954,0.13275146,-12.625,-43.796875,11.75
1696286775498,0.42285156,-1.1138306,0.2321167,-14.453125,-67.1875,17.984375
1696286775543,0.056884766,-1.1533813,0.27874756,1.671875,-64.15625,20.546875
1696286775571,-0.02758789,-0.83306885,0.15765381,17.78125,-62.1875,14.328125
1696286775619,0.07788086,-0.80303955,0.22454834,7.046875,-61.671875,16.734375
1696286775647,0.09423828,-1.0025024,0.27313232,3.625,-61.75,20.609375
1696286775694,0.04296875,-0.96954346,0.28753662,10.625,-60.328125,24.25
1696286775737,-0.08569336,-0.89801025,0.30804443,9.25,-54.875,17.875
1696286775768,-0.13671875,-0.9155884,0.39056396,5.359375,-45.390625,13.8125
1696286775814,-0.083740234,-0.8875122,0.3632202,-0.53125,-42.21875,15.28125
1696286775859,-0.06616211,-0.8921509,0.2633667,-9.546875,-35.390625,12.375
1696286775887,0.060302734,-0.9014282,0.33929443,3.046875,-20.328125,13.359375
1696286775935,0.08129883,-0.987854,0.41229248,-3.5625,-29.71875,15.265625
1696286775962,-0.07788086,-1.0147095,0.5438843,10.140625,-45.921875,13.390625
1696286776011,-0.055664062,-0.8789673,0.51190186,9.25,-54.9375,21.421875
1696286776053,-0.033203125,-1.1997681,0.28167725,2.265625,-69.109375,14.953125
1696286776081,0.5830078,-1.3555298,0.18353271,12.796875,-40.875,24.828125
1696286776129,0.48486328,-0.8237915,0.37249756,31.375,-33.65625,14.265625
1696286776156,-0.10131836,-0.88653564,0.30462646,4.125,-36.8125,14.390625
1696286776204,0.15332031,-1.1209106,0.30462646,0.78125,-25.046875,14.78125
1696286776247,0.3623047,-0.975647,0.37176514,0.578125,-12.828125,3.203125
1696286776276,0.13476562,-0.8406372,0.38446045,3.59375,-13.515625,6.15625
1696286776324,0.017333984,-0.73223877,0.30023193,3.359375,-14.203125,0.375
1696286776352,0.27368164,-0.772522,0.29388428,-1.8125,-11.484375,-1.046875
1696286776400,0.23803711,-0.78448486,0.3612671,-2.234375,-5.984375,3.09375
1696286776444,0.18359375,-0.79571533,0.37664795,-3.1875,-6.8125,1.734375
1696286776472,0.13134766,-0.75567627,0.35736084,-6.28125,-3.640625,-5.328125
1696286776518,0.004638672,-0.63409424,0.27337646,6.234375,1.296875,-11.21875
1696286776546,0.042236328,-0.5371704,0.15911865,9.765625,0.171875,-8.5
1696286776594,0.12109375,-0.67926025,0.3287964,1.359375,-3.375,-11.0625
1696286776639,0.043701172,-0.78448486,0.30194092,2.9375,2.09375,-9.25
1696286776667,0.063964844,-0.8291626,0.41619873,-0.328125,1.984375,-10.015625
1696286776715,0.05126953,-0.9104614,0.39764404,-12.15625,-2.421875,-7.921875
1696286776758,0.12915039,-0.9116821,0.44989014,-7.234375,-3.0,-9.234375
1696286776787,0.053955078,-0.81573486,0.36883545,-2.5,3.21875,-5.234375
1696286776850,0.35473633,-0.9470825,0.06878662,13.03125,-10.296875,16.71875
1696286776861,0.5695801,-1.4483032,0.33514404,-38.90625,-22.734375,26.5
1696286776909,-0.034179688,-2.0,0.53582764,15.21875,7.65625,8.4375
1696286776954,-0.13989258,-1.1306763,0.6046753,0.125,12.875,-8.765625
1696286776983,-0.09082031,-1.2058716,0.3517456,-11.171875,7.5625,-8.265625
1696286777029,0.20629883,-1.1155396,0.37713623,6.28125,9.4375,5.40625
1696286777057,0.045166016,-0.80963135,0.23699951,10.21875,1.0625,4.890625
1696286777103,0.03930664,-0.6668091,0.12786865,15.28125,0.5,-3.28125
1696286777147,0.019042969,-0.5393677,0.14544678,11.546875,-5.96875,-1.21875
1696286777176,0.024658203,-0.5220337,0.18988037,-7.28125,-8.734375,4.25
1696286777224,-0.04296875,-0.68829346,0.23944092,-25.65625,-12.640625,5.171875
1696286777270,0.092041016,-0.66851807,0.19354248,-13.578125,-4.96875,-0.578125
1696286777296,-0.092285156,-0.64971924,0.34173584,-3.015625,12.1875,-0.859375
1696286777343,-0.1105957,-0.75250244,0.18865967,-14.96875,6.203125,-12.0625
1696286777373,0.2680664,-0.70928955,0.2958374,3.21875,6.15625,-5.296875
1696286777419,0.05908203,-1.1577759,0.4857788,-43.15625,11.90625,-6.765625
1696286777463,0.7224121,-1.9758911,0.4772339,10.578125,-12.328125,8.078125
1696286777492,0.052001953,-1.3001099,0.76776123,19.421875,2.421875,-3.9375
1696286777538,-0.26171875,-1.5234985,0.47406006,0.234375,-0.421875,0.1875
1696286777567,0.4140625,-1.4192505,0.58587646,11.890625,-3.8125,-3.828125
1696286777615,0.091552734,-1.038147,0.43450928,7.8125,-0.15625,-2.28125
1696286777657,-0.068847656,-0.77349854,0.24676514,9.859375,-1.015625,-4.0625
1696286777688,0.15063477,-0.6055298,0.19598389,11.0,3.171875,-2.625
1696286777734,0.1171875,-0.5484009,0.199646,-0.46875,1.234375,3.359375
1696286777762,0.09790039,-0.52593994,0.3024292,-0.6875,5.671875,-2.6875
1696286777810,-0.02758789,-0.4258423,0.2086792,3.171875,6.546875,-8.34375
1696286777854,0.032226562,-0.47955322,0.15838623,6.46875,-3.8125,-2.53125
1696286777882,0.14746094,-0.73321533,0.24432373,12.328125,6.703125,-6.40625
1696286777930,0.13647461,-0.8308716,0.17767334,21.765625,2.765625,4.34375
1696286777974,0.2607422,-0.7542114,0.25335693,26.09375,-9.96875,2.859375
1696286778001,-0.1574707,-1.1460571,0.20721436,-6.125,-31.578125,0.96875
1696286778046,0.037841797,-1.5300903,0.09466553,0.0625,-13.0,7.953125
1696286778076,0.36816406,-1.864563,0.3258667,-10.46875,-9.75,17.4375
1696286778126,0.13989258,-1.6375122,0.5795288,-2.609375,-2.0,-5.90625
1696286778167,-0.16308594,-1.3901978,0.3048706,-4.703125,-4.3125,3.765625
1696286778196,0.09008789,-1.2473755,0.31658936,1.1875,2.625,0.3125
1696286778245,-0.024414062,-0.96173096,0.19158936,5.734375,12.234375,-2.46875
1696286778272,0.10107422,-0.6873169,0.11199951,12.25,2.953125,5.53125
1696286778318,0.13842773,-0.62335205,0.17523193,-5.21875,2.609375,5.78125
1696286778364,-0.05883789,-0.73321533,0.14202881,-2.5,0.90625,4.140625
1696286778392,0.0087890625,-0.770813,0.13470459,-2.21875,-1.953125,3.328125
1696286778439,0.048095703,-0.69976807,0.18914795,0.46875,1.53125,-0.921875
1696286778467,-0.12646484,-0.5820923,0.19378662,1.59375,4.171875,-4.9375
1696286778514,0.0024414062,-0.5671997,0.089538574,0.171875,6.25,0.71875
1696286778559,0.15893555,-0.6824341,0.29022217,-14.828125,7.28125,5.703125
1696286778587,-0.19116211,-0.8128052,0.25164795,-18.65625,13.1875,-5.34375
1696286778635,-0.033203125,-0.7078247,0.16741943,5.75,6.1875,-12.125
1696286778710,0.33789062,-0.9949341,0.16473389,-33.984375,8.59375,-2.546875
1696286778714,0.3786621,-1.5432739,0.5453491,-17.046875,11.953125,-1.359375
1696286778753,0.21044922,-1.5757446,0.6366577,5.0625,-3.203125,-4.703125
1696286778782,-0.0026855469,-1.6028442,0.51776123,-7.09375,16.0625,-7.109375
1696286778828,0.34472656,-1.4170532,0.39471436,8.59375,-5.8125,-3.71875
1696286778873,0.11010742,-1.1553345,0.43963623,5.109375,0.0,2.84375
1696286778903,0.011474609,-1.1172485,0.26385498,5.078125,1.34375,-1.734375
1696286778948,0.36328125,-0.8677368,0.31854248,11.28125,-7.984375,2.078125
1696286778977,0.1809082,-0.65997314,0.25653076,7.703125,-17.234375,13.234375
1696286779025,0.03881836,-0.56207275,0.20111084,11.25,-17.734375,7.5
1696286779069,0.064941406,-0.5305786,0.21697998,-11.703125,-18.984375,2.90625
1696286779097,0.0063476562,-0.5215454,0.3378296,-9.171875,4.015625,-2.5625
1696286779144,-0.06591797,-0.43951416,0.08294678,8.625,4.03125,-8.046875
1696286779172,0.19335938,-0.4776001,0.3085327,13.25,-5.703125,-5.03125
1696286779218,0.09741211,-0.7017212,0.25604248,7.296875,-12.796875,-2.203125
1696286779264,0.051513672,-0.7305298,0.3283081,15.734375,6.453125,3.125
1696286779292,0.06542969,-0.9656372,-0.01763916,-5.453125,-13.953125,15.28125
1696286779338,0.4963379,-1.5786743,0.22576904,-34.734375,-27.015625,11.15625
1696286779383,0.2121582,-2.0,0.48529053,24.15625,-6.484375,12.96875
1696286779413,-0.3642578,-1.2522583,0.545105,2.203125,-7.078125,-13.3125
1696286779459,-0.017333984,-1.4666138,0.35198975,-25.546875,-6.625,-9.015625
1696286779487,0.5625,-1.315979,0.37738037,4.140625,-11.171875,-1.09375
1696286779534,-0.25,-0.9590454,0.35516357,-2.546875,-5.109375,-6.5
1696286779578,-0.33496094,-0.89068604,0.11541748,1.15625,-6.5,-8.203125
1696286779607,0.22851562,-0.7217407,0.11932373,4.640625,-0.34375,0.40625
1696286779654,0.071777344,-0.7127075,0.1762085,-4.078125,-0.890625,8.59375
1696286779697,-0.014892578,-0.708313,0.2189331,1.578125,-6.671875,2.625
1696286779728,-0.032470703,-0.58551025,0.2399292,0.640625,-2.0,0.6875
1696286779774,-0.103759766,-0.69122314,0.2543335,-11.421875,-5.59375,1.890625
1696286779802,-0.15527344,-0.69976807,0.21551514,-1.359375,6.28125,-3.125
1696286779848,-0.08862305,-0.63848877,0.2514038,-1.234375,12.796875,-0.671875
1696286779894,0.03100586,-0.7058716,0.2597046,-0.359375,2.09375,-2.265625
1696286779922,-0.068603516,-0.63897705,0.24627686,4.15625,9.359375,-3.5625
1696286779970,0.020263672,-0.9949341,0.11273193,-14.5625,-5.375,-2.109375
1696286779998,0.50561523,-1.3713989,0.41766357,-7.15625,-8.859375,-2.53125
1696286780044,0.3413086,-1.5493774,0.78289795,1.734375,0.15625,9.75
1696286780089,-0.05859375,-1.5337524,0.64520264,-22.90625,5.171875,-6.25
1696286780117,0.31762695,-1.6099243,0.6334839,7.53125,-12.59375,0.140625
1696286780164,0.16772461,-1.1694946,0.55462646,4.3125,-11.453125,6.59375
1696286780191,-0.024169922,-1.013977,0.35784912,8.1875,-10.234375,-4.40625
1696286780238,0.17675781,-0.80181885,0.36419678,14.765625,-3.46875,2.859375
1696286780284,0.17333984,-0.58551025,0.28875732,13.890625,-5.59375,0.484375
1696286780313,0.049560547,-0.52301025,0.23602295,11.4375,-10.421875,1.09375
1696286780359,0.095947266,-0.60894775,0.28240967,4.59375,-7.34375,-2.546875
1696286780387,0.15405273,-0.5755005,0.31536865,7.90625,-13.734375,-4.390625
1696286780434,0.040039062,-0.6272583,0.37200928,9.046875,-21.96875,-4.96875
1696286780478,0.11401367,-0.8118286,0.31756592,2.828125,-35.859375,4.6875
1696286780507,0.10546875,-0.99664307,0.49822998,2.625,-38.875,1.375
1696286780554,-0.08911133,-0.9368286,0.47698975,3.734375,-35.375,1.78125
1696286780600,-0.06298828,-0.6914673,0.41619873,-11.34375,-39.6875,0.15625
1696286780627,0.11035156,-1.0488892,0.19329834,-11.96875,-49.828125,-5.859375
1696286780674,0.30664062,-1.4839478,-0.0029907227,-35.484375,-55.515625,15.921875
1696286780702,0.2763672,-1.7793579,0.47943115,-11.859375,-34.453125,17.21875
1696286780748,-0.20288086,-1.5274048,0.55633545,-12.453125,-33.953125,13.796875
1696286780795,-0.044677734,-1.4268188,0.22064209,21.25,-40.28125,7.765625
1696286780821,0.29541016,-0.9421997,0.21575928,31.359375,-48.1875,20.84375
1696286780869,0.13330078,-0.61431885,0.22894287,19.578125,-60.359375,35.484375
1696286780896,-0.21118164,-0.6189575,0.15887451,18.828125,-68.53125,30.109375
1696286780944,-0.01171875,-0.7246704,0.20281982,12.734375,-58.140625,25.984375
1696286780987,-0.041259766,-0.75177,0.18719482,-7.296875,-54.625,17.859375
1696286781018,-0.1394043,-0.8543091,0.3007202,-6.859375,-45.640625,10.796875
1696286781064,0.02734375,-0.9612427,0.3739624,-8.84375,-31.40625,11.671875
1696286781092,-0.21899414,-1.0078735,0.45477295,-5.921875,-33.78125,4.453125
1696286781139,-0.052978516,-1.1494751,0.432312,0.8125,-50.75,4.453125
1696286781183,0.5830078,-1.4348755,0.3829956,-1.125,-46.75,18.40625
1696286781212,0.85058594,-1.2717896,0.28338623,23.21875,-82.671875,26.40625
1696286781259,0.44311523,-0.911438,0.24456787,20.09375,-61.4375,36.640625
1696286781335,0.05517578,-1.0498657,0.293396,13.375,-58.90625,34.796875
1696286781341,0.18310547,-0.98931885,0.22943115,22.296875,-54.9375,15.28125
1696286781378,0.33569336,-0.802063,0.2814331,17.984375,-53.125,8.40625
1696286781407,0.15063477,-0.74053955,0.37200928,17.75,-44.984375,12.40625
1696286781454,0.12060547,-0.6939087,0.23675537,15.203125,-52.0,7.1875
1696286781498,0.21704102,-0.798645,0.39764404,15.6875,-42.046875,2.828125
1696286781529,0.22753906,-0.8064575,0.35198975,11.875,-40.359375,7.921875
1696286781591,0.20727539,-0.7539673,0.3895874,8.453125,-43.75,4.328125
1696286781602,0.10083008,-0.81256104,0.5355835,3.90625,-42.390625,-3.40625
1696286781648,-0.033691406,-0.8689575,0.4147339,-1.5,-35.984375,-3.796875
1696286781695,0.10473633,-0.9458618,0.41571045,-9.84375,-26.75,-12.875
1696286781722,0.36889648,-1.3604126,0.2892456,-24.578125,-37.765625,1.125
1696286781768,0.3256836,-1.3518677,0.29388428,-0.984375,-0.09375,0.671875
1696286781798,-0.17993164,-0.75665283,-0.058654785,26.71875,-12.296875,-7.625
1696286781844,0.7043457,-0.92926025,0.33172607,-20.703125,-30.640625,16.34375
1696286781889,0.24194336,-1.3706665,0.32244873,-6.390625,-34.90625,13.328125
1696286781917,-0.20922852,-1.0276489,0.1539917,19.125,-22.84375,8.90625
1696286781964,0.0126953125,-0.6712036,0.13372803,11.78125,-26.6875,7.75
1696286782009,0.17285156,-0.81573486,0.22796631,-0.09375,-22.15625,11.234375
1696286782038,0.037109375,-0.8718872,0.22113037,0.390625,-26.125,11.96875
1696286782084,0.007080078,-0.86016846,0.24041748,3.5625,-25.390625,11.640625
1696286782113,0.07080078,-0.880188,0.2880249,-4.375,-28.453125,10.3125
1696286782159,0.0036621094,-0.9234009,0.28338623,-9.40625,-35.546875,6.171875
1696286782201,0.040771484,-0.95318604,0.26385498,-5.390625,-38.640625,6.53125
1696286782232,0.04321289,-0.96343994,0.36346436,-11.015625,-40.0,11.21875
1696286782279,0.3876953,-1.15802,0.31536865,-7.609375,-43.953125,9.90625
1696286782308,0.69311523,-1.1658325,0.40496826,3.21875,-75.625,22.171875
1696286782353,0.08666992,-1.0117798,0.20306396,39.578125,-41.640625,16.828125
1696286782400,0.01953125,-0.847229,0.3751831,17.5625,-36.625,7.3125
1696286782428,0.2553711,-1.0586548,0.38934326,-0.09375,-32.171875,1.859375
1696286782474,0.1303711,-0.9690552,0.2958374,9.84375,-21.53125,-4.171875
1696286782518,0.30029297,-0.7630005,0.35150146,3.28125,-22.40625,0.359375
1696286782547,0.13891602,-0.76397705,0.34783936,4.390625,-22.203125,3.5625
1696286782595,0.17333984,-0.7498169,0.28778076,7.203125,-17.765625,2.28125
1696286782622,0.22705078,-0.7007446,0.30999756,2.703125,-19.546875,4.734375
1696286782670,0.004638672,-0.6123657,0.34832764,6.703125,-11.265625,-3.859375
1696286782713,-0.034179688,-0.58721924,0.230896,-1.3125,-7.640625,-8.9375
1696286782743,0.028320312,-0.64141846,0.25872803,12.328125,-1.78125,-17.34375
1696286782789,0.110839844,-0.6651001,0.26971436,5.828125,-6.625,-6.640625
1696286782819,-0.0012207031,-0.9048462,0.3986206,-2.78125,-10.1875,-19.0625
1696286782863,0.060058594,-0.94488525,0.32513428,3.609375,-8.125,-9.5625
1696286782908,0.13574219,-0.7678833,0.29559326,-0.65625,-14.078125,-4.328125
1696286782937,0.18334961,-1.1582642,0.2164917,-25.109375,-32.984375,6.859375
1696286782985,0.64038086,-1.5213013,0.22601318,-14.734375,-18.921875,18.296875
1696286783012,-0.29711914,-1.7561646,0.46795654,-15.453125,-0.046875,7.578125
1696286783058,-0.16821289,-1.5549927,0.33441162,0.171875,2.234375,-11.921875
1696286783103,0.12548828,-1.2522583,0.41741943,-2.796875,-7.546875,-4.984375
1696286783133,0.030029297,-1.1838989,0.37298584,-7.265625,5.1875,1.578125
1696286783178,-0.07080078,-0.94195557,0.23822021,10.828125,0.625,7.703125
1696286783224,-0.05493164,-0.70391846,0.21136475,10.28125,5.796875,1.765625
1696286783252,-0.047607422,-0.66851807,0.16693115,4.484375,7.15625,3.078125
1696286783298,0.016357422,-0.7173462,0.17962646,-2.8125,7.3125,2.9375
1696286783327,-0.037841797,-0.71881104,0.1552124,-7.15625,5.6875,0.875
1696286783373,-0.083740234,-0.70635986,0.24847412,-7.03125,9.140625,-2.84375
1696286783419,-0.036376953,-0.7893677,0.1593628,-13.75,7.6875,-0.359375
1696286783448,-0.0107421875,-0.5354614,0.21136475,1.71875,14.140625,-2.515625
1696286783494,-0.09814453,-0.68414307,0.2868042,-15.71875,19.640625,3.578125
1696286783523,0.00390625,-0.8218384,0.16009521,-2.25,9.328125,-3.28125
1696286783569,-0.013183594,-0.6397095,0.3151245,11.5625,7.8125,-3.046875
1696286783613,0.008056641,-1.029602,0.35491943,-32.0,15.421875,-5.75
1696286783642,0.4736328,-1.5628052,0.24261475,-19.96875,4.625,4.875
1696286783689,0.51538086,-1.6992798,0.68548584,-1.53125,2.234375,11.390625
1696286783717,-0.1352539,-1.59552,0.5006714,6.375,6.3125,9.390625
1696286783764,0.20141602,-1.3630981,0.5350952,10.09375,-0.234375,-1.34375
1696286783810,0.1381836,-1.1143188,0.45770264,3.828125,-0.625,3.21875
1696286783837,0.13793945,-0.97369385,0.3673706,7.140625,-1.859375,2.796875
1696286783883,0.19189453,-0.6995239,0.31903076,10.484375,0.8125,1.28125
1696286783928,0.08959961,-0.6543579,0.29119873,0.796875,-7.3125,3.890625
1696286783957,0.03125,-0.6626587,0.27313232,-2.1875,-6.125,-0.4375
1696286784005,0.10571289,-0.6199341,0.24139404,-2.0,-6.6875,-4.78125
1696286784032,0.09643555,-0.503479,0.27313232,9.84375,-3.0,-1.46875
1696286784079,0.12719727,-0.58135986,0.1942749,-4.796875,-8.625,6.65625
1696286784123,0.2006836,-0.86798096,0.34613037,-2.53125,-13.625,3.96875
1696286784152,0.040771484,-0.862854,0.29119873,23.21875,-11.796875,-1.9375
1696286784200,0.0847168,-0.7258911,0.33953857,11.609375,-24.875,2.0625
1696286784228,0.06298828,-0.9343872,0.46990967,7.15625,-31.421875,-3.15625
1696286784274,-0.18554688,-0.99053955,0.35980225,9.875,-16.078125,-2.90625
1696286784318,0.24365234,-0.92193604,0.15545654,12.90625,-20.5625,1.8125
1696286784348,0.3564453,-1.2232056,0.25213623,-17.5625,-34.90625,10.359375
1696286784393,0.014892578,-1.7207642,0.2579956,1.859375,-4.078125,11.53125
1696286784421,-0.024658203,-1.0125122,0.3414917,23.953125,-1.890625,-12.453125
1696286784468,-0.15698242,-0.9949341,0.3834839,-21.09375,5.765625,4.5
1696286784514,0.42163086,-1.6213989,0.32537842,-0.203125,-20.265625,3.234375
1696286784541,0.01953125,-1.1043091,0.31195068,4.484375,-4.1875,0.203125
1696286784589,-0.064453125,-0.9324341,0.21380615,0.5,-7.890625,2.734375
1696286784633,0.16894531,-0.97076416,0.28826904,5.859375,-11.234375,9.46875
1696286784663,-0.033203125,-0.83062744,0.24310303,5.84375,-3.703125,8.25
1696286784708,-0.001953125,-0.73516846,0.16644287,4.96875,-6.0,5.015625
1696286784737,-0.049804688,-0.72442627,0.24945068,-4.859375,-2.5625,4.078125
1696286784783,-0.1538086,-0.6499634,0.17327881,-6.671875,7.203125,-2.734375
1696286784829,-0.080078125,-0.6939087,0.16204834,-12.796875,19.328125,-3.078125
1696286784857,-0.033203125,-0.6987915,0.24261475,-9.65625,22.5625,-6.609375
1696286784906,-0.033935547,-0.647522,0.19134521,-2.140625,20.28125,-9.3125
1696286784932,0.14941406,-0.6194458,0.05291748,5.25,10.984375,-6.015625
1696286784978,0.21044922,-1.0442505,0.25628662,-25.140625,17.765625,3.21875
1696286785024,0.4555664,-1.4978638,0.39666748,-4.453125,21.671875,1.984375
1696286785052,0.20483398,-1.506897,0.49212646,0.34375,6.0625,-2.0
1696286785099,0.27661133,-1.6104126,0.5385132,-7.03125,23.28125,0.40625
1696286785127,0.33129883,-1.4783325,0.32904053,7.734375,1.328125,-0.09375
1696286785174,0.14282227,-1.0679321,0.4105835,4.28125,-1.546875,1.328125
1696286785218,0.0024414062,-0.9824829,0.31292725,0.734375,4.75,2.59375
1696286785248,0.18383789,-0.80914307,0.23577881,9.96875,6.890625,-2.390625
1696286785294,0.2097168,-0.63116455,0.23968506,7.109375,7.6875,3.6875
1696286785338,0.09326172,-0.6724243,0.18255615,0.734375,5.359375,5.9375
1696286785368,0.1953125,-0.71710205,0.2748413,4.078125,7.21875,2.421875
1696286785414,0.09643555,-0.6397095,0.29510498,3.234375,1.734375,0.65625
1696286785443,0.11206055,-0.6956177,0.29559326,-1.234375,-2.015625,-2.75
1696286785490,0.08276367,-0.7192993,0.2033081,6.828125,-8.890625,-5.25
1696286785534,0.15844727,-0.67315674,0.29144287,5.1875,-11.1875,-0.9375
1696286785562,0.008300781,-0.76763916,0.37908936,-1.0,-12.78125,-6.390625
1696286785610,-0.048583984,-0.72857666,0.3012085,3.65625,-1.046875,-3.375
1696286785636,0.11743164,-0.7163696,0.23431396,-7.609375,-10.015625,-6.890625
1696286785684,0.30981445,-1.1519165,0.13031006,-22.375,-35.875,-6.65625
1696286785729,0.49731445,-1.5271606,0.31097412,-13.6875,-24.0,11.65625
1696286785756,-0.23022461,-1.7949829,0.3649292,-5.34375,-16.265625,10.171875
1696286785803,0.20214844,-1.4370728,0.49700928,2.171875,-17.46875,-17.59375
1696286785848,-0.1027832,-1.2542114,0.5031128,-15.265625,-5.75,-11.40625
1696286785877,0.064941406,-1.2793579,0.3619995,-8.953125,-9.46875,-8.1875
1696286785924,0.022460938,-1.0276489,0.25653076,1.59375,-9.9375,0.640625
1696286785952,-0.24194336,-0.82354736,0.28289795,7.765625,4.75,-10.46875
1696286786000,-0.026367188,-0.7781372,0.18719482,-2.609375,6.9375,-2.78125
1696286786044,0.056396484,-0.7359009,0.18621826,-5.53125,9.21875,3.046875
1696286786072,2.4414062E-4,-0.72003174,0.18035889,-2.203125,2.796875,4.1875
1696286786120,0.012451172,-0.75177,0.28338623,-4.46875,3.71875,2.765625
1696286786195,-0.13647461,-0.7312622,0.3085327,-10.5,4.046875,0.109375
1696286786198,-0.1184082,-0.725647,0.24041748,-10.6875,11.265625,-5.171875
1696286786237,-0.0026855469,-0.6506958,0.23675537,-1.890625,14.90625,-2.609375
1696286786268,0.07080078,-0.5977173,0.3060913,1.609375,10.8125,-0.390625
1696286786314,-0.122802734,-0.63238525,0.34735107,-1.625,15.96875,-3.265625
1696286786343,-0.0146484375,-0.8220825,0.13665771,-5.296875,0.796875,-4.3125
1696286786387,0.34472656,-1.2507935,0.3456421,7.5625,17.5625,-5.71875
1696286786434,0.42236328,-1.4778442,0.5595093,5.03125,19.359375,5.28125
1696286786462,-0.12695312,-1.3247681,0.5162964,-10.03125,6.40625,2.359375
1696286786510,0.34936523,-1.7288208,0.74090576,4.21875,9.640625,0.9375
1696286786554,0.017089844,-1.3140259,0.4208374,6.578125,5.109375,-1.515625
1696286786581,0.20703125,-0.97613525,0.44036865,0.71875,0.71875,0.75
1696286786629,0.07470703,-0.98687744,0.41864014,9.671875,-0.875,-0.9375
1696286786656,0.07104492,-0.7293091,0.27459717,11.046875,-0.0625,-2.25
1696286786704,0.17578125,-0.5881958,0.2819214,8.09375,-3.125,-0.109375
1696286786749,0.15209961,-0.67388916,0.26263428,3.078125,-9.453125,0.921875
1696286786777,0.09887695,-0.67852783,0.2970581,7.5,-10.296875,-1.578125
1696286786824,0.09277344,-0.6304321,0.27508545,6.40625,-14.828125,-3.21875
1696286786852,0.06982422,-0.6782837,0.30047607,8.5,-23.390625,0.125
1696286786899,0.14550781,-0.7949829,0.3439331,6.640625,-28.65625,5.125
1696286786943,0.17163086,-0.9553833,0.39788818,1.21875,-46.9375,8.703125
1696286786973,-0.060546875,-0.93951416,0.42181396,4.90625,-50.109375,8.140625
1696286787019,-0.24169922,-0.86431885,0.5570679,-9.15625,-46.78125,-4.296875
1696286787046,-0.31298828,-0.98931885,0.2921753,-22.671875,-51.59375,-3.28125
1696286787095,0.484375,-1.2659302,0.3817749,-39.578125,-35.671875,4.8125
1696286787139,0.22387695,-1.4839478,0.2946167,-8.125,-27.046875,13.125
1696286787168,-0.068603516,-1.4605103,0.39056396,-8.484375,-43.765625,7.359375
1696286787215,0.036376953,-1.3811646,0.4557495,-7.96875,-36.875,8.09375
1696286787290,0.07128906,-1.133606,0.4237671,11.890625,-30.59375,8.984375
1696286787297,0.016845703,-0.83477783,0.33392334,12.765625,-32.328125,20.640625
1696286787333,-0.07397461,-0.70513916,0.28875732,16.671875,-26.3125,21.078125
1696286787362,-0.106933594,-0.72052,0.24163818,16.109375,-34.734375,16.703125
1696286787409,-0.055908203,-0.6878052,0.23480225,18.75,-34.25,18.515625
1696286787454,-0.056396484,-0.76641846,0.2531128,5.765625,-24.65625,18.09375
1696286787482,0.0017089844,-0.8567505,0.3036499,-1.109375,-14.515625,15.125
1696286787529,0.05126953,-0.9807739,0.32122803,-4.1875,-20.5625,13.90625
1696286787557,0.0041503906,-1.1289673,0.5241089,-3.265625,-29.625,14.484375
1696286787603,-0.11816406,-1.2354126,0.4118042,0.796875,-37.484375,9.8125
1696286787648,0.5554199,-1.3572388,0.34100342,4.21875,-41.265625,21.328125
1696286787677,1.0151367,-1.1275024,0.25115967,21.875,-60.0625,29.40625
1696286787724,0.24389648,-0.89019775,0.27166748,32.71875,-44.390625,36.84375
1696286787752,-0.022216797,-0.93756104,0.113220215,24.25,-54.859375,26.109375
1696286787800,0.34716797,-0.99005127,0.2506714,14.65625,-39.25,9.84375
1696286787842,0.26538086,-0.8274536,0.22991943,13.359375,-42.0625,4.453125
1696286787873,0.1459961,-0.7090454,0.25238037,14.96875,-39.265625,5.546875
1696286787919,0.27783203,-0.7258911,0.29022217,9.171875,-41.515625,4.546875
1696286787961,0.25708008,-0.8467407,0.30706787,7.546875,-45.78125,3.84375
1696286787992,0.27978516,-0.8526001,0.35931396,12.046875,-41.40625,5.46875
1696286788039,0.23950195,-0.79034424,0.32757568,12.828125,-37.796875,2.625
1696286788067,0.18408203,-0.82281494,0.39520264,10.328125,-42.546875,4.828125
1696286788114,0.14331055,-0.88775635,0.3222046,10.359375,-47.5625,0.546875
1696286788158,0.23364258,-0.94244385,0.38372803,9.921875,-43.546875,1.53125
1696286788186,-0.15942383,-1.048645,0.52752686,1.40625,-34.453125,-12.46875
1696286788235,-0.21435547,-1.1089478,0.26678467,1.140625,-17.546875,-27.734375
1696286788261,0.45507812,-1.267395,0.2399292,-22.140625,-25.0,-20.890625
1696286788308,0.63549805,-1.451477,0.2850952,-15.703125,-21.703125,6.203125
1696286788354,0.16894531,-0.8899536,-0.02935791,22.671875,-3.734375,1.703125
1696286788382,0.114990234,-0.49468994,0.10760498,-2.484375,-26.53125,0.90625
1696286788428,0.24365234,-0.96832275,0.2748413,-21.296875,-44.25,7.03125
1696286788473,0.13574219,-1.3213501,0.15228271,-8.53125,-46.828125,12.625
1696286788502,0.07080078,-0.8401489,0.12664795,15.0,-44.34375,7.09375
1696286788549,0.08325195,-0.7774048,0.13983154,0.703125,-44.625,9.15625
1696286788577,0.14892578,-1.0198364,0.24481201,0.703125,-48.296875,13.390625
1696286788624,0.072753906,-0.99420166,0.21234131,10.28125,-46.40625,12.953125
1696286788669,-0.08666992,-0.90289307,0.20526123,4.453125,-41.03125,10.765625
1696286788697,-0.0012207031,-0.94122314,0.3336792,0.421875,-35.578125,9.5
1696286788744,-0.02319336,-0.92022705,0.31585693,-2.78125,-29.453125,7.78125
1696286788772,-0.060302734,-0.9138794,0.2555542,-4.125,-27.15625,6.671875
1696286788819,0.07080078,-0.93414307,0.3624878,-0.5625,-22.453125,4.578125
1696286788865,-0.08544922,-0.9209595,0.3912964,-12.46875,-17.015625,4.703125
1696286788892,0.0793457,-0.8682251,0.355896,-8.21875,-22.28125,6.71875
1696286788937,0.10205078,-0.92755127,0.3908081,-16.046875,-34.59375,13.078125
1696286788967,-0.08276367,-1.1375122,0.24554443,-19.171875,-49.015625,14.109375
1696286789012,0.5720215,-1.444397,0.2111206,-2.59375,-36.5625,16.609375
1696286789059,0.40576172,-0.81573486,0.18035889,26.796875,-40.234375,12.328125
1696286789087,-0.33203125,-0.84820557,0.16693115,9.265625,-30.75,2.515625
1696286789134,0.13549805,-1.1643677,0.3241577,-5.671875,-14.828125,-0.375
1696286789178,0.56518555,-1.0896606,0.39666748,12.046875,-17.734375,6.40625
1696286789207,0.107910156,-0.8587036,0.30755615,14.875,-27.953125,5.46875
1696286789254,-0.0012207031,-0.798645,0.24261475,0.875,-24.484375,1.5625
1696286789282,0.18579102,-0.83477783,0.24700928,-1.1875,-15.015625,3.875
1696286789329,0.2175293,-0.85821533,0.32562256,-3.078125,-8.609375,5.3125
1696286789373,0.1508789,-0.74224854,0.3131714,-1.734375,-6.15625,2.125
1696286789402,0.013671875,-0.7022095,0.32147217,-6.34375,-8.578125,-5.84375
1696286789450,0.08129883,-0.68878174,0.23309326,2.875,-7.109375,-4.125
1696286789476,0.071777344,-0.61260986,0.21234131,6.484375,-11.28125,-4.015625
1696286789524,0.05078125,-0.5964966,0.24725342,13.25,-0.28125,-1.734375
1696286789569,0.08178711,-0.7666626,0.26556396,-0.671875,-4.765625,-4.625
1696286789598,0.037109375,-1.02594,0.3866577,1.234375,-14.5,-9.8125
1696286789644,-0.049316406,-0.90997314,0.291687,14.578125,-3.984375,-10.234375
1696286789672,0.03149414,-0.8167114,0.30633545,3.875,-1.40625,-6.921875
1696286789719,-0.034179688,-0.864563,0.24359131,-0.875,-5.03125,-11.25
1696286789764,0.24047852,-1.003479,0.09442139,-7.953125,-14.71875,7.015625
1696286789793,0.48486328,-1.4636841,0.089538574,-18.875,-15.71875,16.328125
1696286789838,0.0024414062,-1.9404907,0.30047607,-12.03125,-11.46875,11.328125
1696286789883,-0.5913086,-1.197815,0.6708374,-10.078125,13.734375,-18.890625
1696286789911,0.34594727,-1.394104,0.2789917,-14.3125,-13.59375,7.96875
1696286789959,0.3293457,-1.1421509,0.32196045,5.109375,-3.640625,12.234375
1696286789987,-0.39453125,-0.909729,0.21038818,8.390625,-6.859375,6.3125
1696286790032,-0.034423828,-0.7390747,0.1564331,7.828125,-0.5,5.6875
1696286790076,0.1484375,-0.7156372,0.1539917,-0.59375,-2.921875,8.859375
1696286790107,0.033203125,-0.7642212,0.17059326,-0.609375,-0.21875,5.390625
1696286790151,-0.039794922,-0.69781494,0.18109131,-3.0625,-0.359375,3.734375
1696286790182,0.018310547,-0.6956177,0.23651123,-5.8125,-3.609375,2.734375
1696286790230,-0.13745117,-0.70269775,0.2579956,-12.390625,1.046875,-0.546875
1696286790273,-0.030029297,-0.6826782,0.18939209,-5.46875,2.265625,-1.453125
1696286790301,0.020996094,-0.70977783,0.33685303,-10.78125,9.703125,-2.609375
1696286790349,-0.087402344,-0.7942505,0.3048706,-13.15625,9.78125,-6.375
1696286790377,0.012207031,-0.7522583,0.20159912,2.65625,14.546875,-7.8125
1696286790424,0.03857422,-0.9985962,0.21795654,-20.109375,8.21875,-7.0
1696286790468,0.45263672,-1.388977,0.37713623,-3.59375,11.984375,-3.125
1696286790497,0.6088867,-1.5908813,0.86053467,-3.78125,-9.4375,11.25
1696286790543,-0.22387695,-1.4819946,0.5204468,-13.375,16.265625,-2.703125
1696286790589,0.28222656,-1.4570923,0.46136475,12.78125,-1.265625,-2.1875
1696286790616,0.18774414,-1.2146606,0.51556396,0.9375,2.234375,5.640625
1696286790664,-0.012939453,-0.9483032,0.3685913,9.5,6.234375,-4.734375
1696286790691,0.111816406,-0.7661743,0.33587646,8.875,8.9375,0.90625
1696286790739,0.19677734,-0.6338501,0.2501831,6.28125,6.453125,3.03125
1696286790781,0.10107422,-0.6633911,0.30389404,-2.0,1.984375,3.40625
1696286790844,0.06274414,-0.7554321,0.27288818,0.265625,4.34375,-0.296875
1696286790856,0.24975586,-0.73272705,0.33685303,1.890625,-0.8125,2.671875
1696286790885,0.104003906,-0.8340454,0.39886475,-2.171875,-12.078125,0.625
1696286790933,-0.092285156,-0.96466064,0.33148193,16.46875,-4.328125,-6.1875
1696286790979,0.1640625,-0.8027954,0.29486084,22.609375,-11.984375,1.1875
1696286791008,0.07348633,-0.661438,0.35394287,7.90625,-12.546875,-1.015625
1696286791051,-0.11816406,-0.68634033,0.11907959,4.875,-11.546875,-3.734375
1696286791081,0.103759766,-0.80841064,0.4088745,0.359375,-9.265625,-7.34375
1696286791128,0.119384766,-0.7756958,0.26922607,4.171875,-7.546875,-3.59375
1696286791174,0.08959961,-0.76641846,0.32562256,-2.828125,-12.375,-2.21875
1696286791203,0.17041016,-1.0432739,0.10296631,-10.171875,-30.53125,0.859375
1696286791249,0.46850586,-1.4119263,0.33441162,-24.375,-26.46875,19.625
1696286791293,-0.2619629,-1.7029419,0.32562256,1.578125,1.953125,11.90625
1696286791322,-0.22509766,-1.4783325,0.44647217,-19.890625,2.96875,-12.4375
1696286791369,0.12817383,-1.3748169,0.46624756,-20.3125,7.46875,-14.828125
1696286791398,0.12646484,-1.2522583,0.34710693,1.25,-2.921875,-1.796875
1696286791444,-0.07788086,-0.8850708,0.29119873,13.09375,1.328125,-2.453125
1696286791487,-0.110839844,-0.6680298,0.14349365,4.125,-0.265625,0.765625
1696286791518,0.030517578,-0.7283325,0.13909912,3.71875,-0.3125,2.78125
1696286791579,0.028076172,-0.70025635,0.16546631,-2.1875,4.359375,1.171875
1696286791591,-0.05859375,-0.6670532,0.19989014,-13.640625,-0.09375,3.234375
1696286791638,-0.13623047,-0.63238525,0.23699951,-13.140625,6.453125,-2.03125
1696286791683,-0.10107422,-0.7329712,0.27288818,-17.84375,16.765625,2.671875
1696286791712,0.036376953,-0.8706665,0.19915771,-5.71875,4.28125,3.640625
1696286791758,-0.09350586,-0.64630127,0.27337646,1.109375,13.359375,-1.09375
1696286791803,-0.079589844,-0.59161377,0.3270874,-2.5,22.15625,-0.90625
1696286791832,0.111572266,-0.7659302,0.050231934,-3.328125,7.140625,-6.859375
1696286791879,0.45507812,-1.1255493,0.36663818,0.6875,9.25,2.140625
1696286791907,0.43017578,-1.5718384,0.7628784,-9.53125,9.359375,3.46875
1696286791955,0.03881836,-1.7974243,0.6766968,-18.1875,29.625,-10.171875
1696286791999,0.36743164,-1.2527466,0.7062378,12.140625,13.59375,-2.140625
1696286792027,0.12597656,-1.2520142,0.56170654,-4.40625,5.75,14.75
1696286792074,0.114746094,-1.1729126,0.45062256,-0.53125,2.171875,-9.34375
1696286792103,0.22436523,-0.91900635,0.46795654,10.296875,4.265625,-6.109375
1696286792151,0.19824219,-0.6812134,0.338562,8.546875,2.28125,0.765625
1696286792192,0.11645508,-0.5889282,0.2909546,2.84375,-0.03125,2.890625
1696286792223,0.041015625,-0.56573486,0.22991943,3.46875,0.5,-5.828125
1696286792269,0.22729492,-0.5252075,0.27996826,6.65625,5.84375,-2.5
1696286792296,0.12231445,-0.5298462,0.24407959,10.265625,-2.5,-1.890625
1696286792345,0.107910156,-0.66973877,0.33636475,7.203125,-8.09375,-3.984375
1696286792387,0.020019531,-0.7930298,0.2008667,15.421875,-2.625,-3.484375
1696286792417,0.10986328,-0.73883057,0.4039917,10.9375,0.84375,-2.796875
1696286792464,-0.0073242188,-0.678772,0.25604248,6.390625,-2.984375,-5.0625
1696286792508,0.12060547,-1.0037231,0.24188232,-8.921875,-10.5625,-3.671875
1696286792536,0.3527832,-1.5149536,0.25115967,-35.875,-14.265625,7.78125
1696286792584,0.33544922,-2.0,0.49920654,-3.390625,-22.765625,14.6875
1696286792613,-0.0041503906,-1.3513794,0.74383545,-1.296875,-8.59375,-9.6875
1696286792659,-0.24707031,-1.2285767,0.4911499,-6.53125,-13.703125,-9.1875
1696286792703,0.103027344,-1.1384888,0.32635498,8.828125,-23.921875,2.046875
1696286792732,-0.032470703,-0.8814087,0.18084717,18.09375,-17.5625,0.953125
1696286792778,-0.0031738281,-0.7258911,0.13665771,17.9375,-13.375,6.234375
1696286792806,0.09057617,-0.62677,0.13568115,10.75,-14.265625,10.828125
1696286792854,0.030517578,-0.706604,0.16937256,-2.0,-15.296875,10.625
1696286792899,-0.06982422,-0.72320557,0.17669678,-0.8125,-12.0625,5.640625
1696286792928,-0.07861328,-0.71051025,0.23968506,0.53125,-7.4375,1.875
1696286792973,-0.060058594,-0.6253052,0.15692139,-14.71875,-11.46875,-0.890625
1696286793002,-0.111083984,-0.5281372,0.25579834,-1.140625,-0.953125,-2.546875
1696286793049,-0.049316406,-0.6699829,0.23919678,-10.78125,1.765625,-1.078125
1696286793094,-0.01953125,-0.63848877,0.27069092,1.09375,3.21875,-2.34375
1696286793123,-0.10424805,-0.6067505,0.2333374,-2.625,-1.375,-5.65625
1696286793168,0.16357422,-1.3643188,0.66156006,-24.296875,31.828125,-23.25
1696286793211,0.6491699,-2.0,0.47283936,18.484375,-9.0,6.625
1696286793241,0.20239258,-1.4424438,0.6300659,-0.546875,-18.671875,3.625
1696286793290,-0.008300781,-1.7905884,0.66448975,7.25,-7.0,5.5
1696286793317,0.0014648438,-1.2954712,0.4574585,10.046875,-6.09375,2.515625
1696286793365,0.14404297,-0.9168091,0.4550171,8.640625,-1.078125,1.453125
1696286793408,-0.052490234,-0.7822876,0.34100342,5.734375,-6.953125,-1.828125
1696286793437,0.1105957,-0.6565552,0.2736206,15.40625,-1.203125,-4.4375
1696286793484,0.21679688,-0.5576782,0.25286865,4.03125,-10.375,0.0
1696286793513,0.07495117,-0.5606079,0.33172607,10.28125,-13.140625,0.171875
1696286793559,0.056884766,-0.5696411,0.2855835,10.96875,-12.328125,-3.15625
1696286793605,0.06616211,-0.628479,0.33538818,4.5625,-19.0625,-3.28125
1696286793633,0.0690918,-0.6553345,0.35906982,9.453125,-22.109375,-5.734375
1696286793680,0.0021972656,-0.7554321,0.2399292,1.734375,-33.921875,5.5
1696286793707,0.22338867,-0.97979736,0.40081787,-4.296875,-36.109375,7.3125
1696286793754,0.040283203,-0.8640747,0.65667725,-5.96875,-43.890625,4.28125
1696286793797,-0.65478516,-1.1438599,0.15496826,-14.515625,-50.640625,-4.890625
1696286793827,0.5991211,-1.3296509,0.07293701,-22.515625,-26.796875,36.625
1696286793875,0.70703125,-1.6643677,0.15545654,-22.46875,-47.515625,21.578125
1696286793917,-0.63549805,-1.503479,0.34906006,-19.4375,-44.125,3.109375
1696286793947,0.25439453,-1.6956177,0.41912842,-5.9375,-41.921875,5.703125
1696286793994,0.3088379,-1.2151489,0.39886475,3.765625,-32.265625,9.8125
1696286794022,-0.21679688,-0.90631104,0.18792725,21.734375,-28.5625,18.109375
1696286794069,0.0769043,-0.70977783,0.34100342,19.1875,-37.984375,15.6875
1696286794115,0.050048828,-0.6548462,0.24554443,12.640625,-40.90625,20.65625
1696286794142,-0.035888672,-0.708313,0.23553467,6.5,-42.453125,16.28125
1696286794191,0.0024414062,-0.7366333,0.3151245,8.3125,-39.140625,12.96875
1696286794217,-0.052001953,-0.84039307,0.30462646,6.296875,-31.234375,12.109375
1696286794264,0.046142578,-0.9026489,0.30584717,8.0,-42.21875,12.9375
1696286794308,0.10083008,-1.0210571,0.4081421,-1.609375,-37.921875,17.484375
1696286794337,0.07128906,-1.0698853,0.5392456,-2.15625,-48.34375,20.609375
1696286794384,-0.107421875,-1.0630493,0.5548706,-1.09375,-56.53125,10.953125
1696286794429,0.18017578,-1.1607056,0.2387085,8.46875,-59.765625,16.078125
1696286794457,0.8027344,-1.1099243,-0.038391113,21.625,-76.40625,27.734375
1696286794504,0.6738281,-0.8069458,0.3295288,15.171875,-81.21875,37.4375
1696286794532,-0.22558594,-1.2576294,0.12298584,10.546875,-66.890625,20.359375
1696286794579,0.4440918,-1.1802368,0.33636475,16.71875,-42.1875,10.078125
1696286794623,0.37280273,-0.8987427,0.27435303,15.578125,-44.859375,5.96875
1696286794653,0.18701172,-0.7720337,0.2789917,22.578125,-48.453125,11.625
1696286794699,0.15283203,-0.63726807,0.27923584,9.140625,-53.46875,5.5625
1696286794774,0.16821289,-0.87750244,0.3163452,6.34375,-46.53125,7.828125
1696286794780,0.24926758,-0.8386841,0.24505615,12.578125,-41.609375,4.984375
1696286794835,0.18237305,-0.76812744,0.37469482,4.625,-39.65625,1.109375
1696286794846,0.07348633,-0.7942505,0.3998413,8.421875,-41.515625,-0.984375
1696286794895,0.12646484,-0.7559204,0.4052124,8.453125,-44.53125,-3.859375
1696286794923,0.17358398,-0.80303955,0.47454834,2.59375,-31.65625,-2.0
1696286794969,0.10449219,-0.9282837,0.41107178,-0.328125,-39.1875,1.5625
1696286795012,0.0546875,-1.0620728,0.4701538,6.9375,-33.5625,-7.75
1696286795042,-0.12060547,-1.1607056,0.28826904,-5.28125,-35.6875,-11.84375
1696286795088,0.4465332,-1.3640747,0.3065796,-15.3125,-38.59375,3.890625
1696286795164,0.6130371,-1.3406372,0.1593628,-6.6875,-26.5,22.984375
1696286795170,-0.17944336,-0.7398071,-0.006652832,20.546875,2.65625,-0.375
1696286795208,0.23095703,-0.9158325,0.020690918,-8.015625,-38.359375,14.578125
1696286795237,0.5114746,-1.1433716,0.2723999,1.703125,-38.609375,17.234375
1696286795283,-0.10571289,-1.0645142,0.13397217,11.484375,-30.90625,13.21875
1696286795328,-0.001953125,-0.7156372,0.021911621,12.890625,-29.0625,8.84375
1696286795357,0.23266602,-0.78985596,0.12835693,4.21875,-29.515625,15.203125
1696286795404,0.2163086,-0.99542236,0.12689209,11.65625,-33.6875,12.953125
1696286795432,0.17822266,-0.77423096,0.047790527,21.265625,-42.46875,13.5
1696286795478,0.07104492,-0.55426025,0.074645996,20.71875,-50.421875,9.734375
1696286795523,-0.22558594,-0.37652588,0.17767334,13.421875,-39.0625,-3.75
1696286795552,-0.057373047,-0.60235596,0.059265137,3.140625,-34.03125,-3.21875
1696286795598,0.15673828,-0.74420166,0.27459717,-7.953125,-36.84375,-0.46875
1696286795627,-0.020019531,-0.9060669,0.33026123,-38.953125,-35.546875,10.4375
1696286795674,-0.29638672,-1.005188,0.21795654,-12.5625,-17.171875,-23.375
1696286795719,0.24047852,-0.68951416,0.12445068,15.890625,-19.484375,0.59375
1696286795747,0.24902344,-1.0840454,0.22503662,-43.6875,1.515625,2.859375
1696286795794,0.45239258,-1.8015747,0.5165405,-16.65625,-1.453125,10.078125
1696286795870,0.04736328,-1.7341919,0.5927124,4.921875,-16.84375,-5.40625
1696286795873,0.15600586,-1.548645,0.57855225,-8.765625,1.234375,3.0
1696286795912,0.29174805,-1.4185181,0.42767334,12.25,-9.078125,-6.46875
1696286795942,0.107666016,-0.89508057,0.45794678,7.90625,-4.734375,2.421875
1696286795989,0.111572266,-0.7156372,0.27020264,-1.328125,-1.921875,6.703125
1696286796034,0.09350586,-0.5779419,0.27557373,6.015625,7.21875,-0.5
1696286796063,0.02709961,-0.35723877,0.24847412,3.390625,6.625,-3.453125
1696286796109,0.05078125,-0.32110596,0.1149292,-0.125,4.578125,-9.0
1696286796137,0.17919922,-0.5984497,0.31707764,-11.421875,7.21875,-4.984375
1696286796184,-0.06347656,-0.6296997,0.13031006,3.75,11.34375,-4.078125
1696286796228,0.049804688,-0.58258057,0.28094482,3.9375,9.25,-8.453125
1696286796257,0.051757812,-0.76885986,0.006286621,-2.421875,1.265625,-3.625
1696286796306,0.46289062,-1.1113892,0.10272217,-16.609375,-8.828125,17.421875
1696286796332,0.69555664,-1.9424438,0.32073975,-39.625,-6.40625,24.390625
1696286796380,-0.44921875,-2.0,0.8241577,-7.234375,2.890625,-11.265625
1696286796422,0.080078125,-1.4285278,0.4796753,-8.4375,4.875,-15.015625
1696286796453,0.23803711,-1.2717896,0.49188232,-12.984375,7.625,-12.015625
1696286796496,-0.087890625,-0.86553955,0.30096436,20.421875,5.640625,-5.453125
1696286796544,-0.0061035156,-0.67755127,0.15252686,18.34375,-8.328125,0.3125
1696286796571,0.14135742,-0.72052,0.20501709,4.84375,-9.171875,0.359375
1696286796619,-0.1694336,-0.58062744,0.20843506,1.125,-7.71875,-2.578125
1696286796647,-0.14550781,-0.4024048,0.22991943,-4.578125,-3.796875,-2.640625
1696286796693,-0.05102539,-0.567688,0.16644287,-30.4375,-1.296875,-1.875
1696286796739,0.039794922,-0.8989868,0.2579956,-31.15625,-4.046875,2.390625
1696286796767,-0.07128906,-0.8413696,0.25408936,11.625,-6.5,-11.203125
1696286796814,-0.23657227,-0.4192505,0.4418335,-12.53125,10.15625,-11.375
1696286796842,0.11767578,-0.8530884,0.11956787,4.96875,-14.578125,-6.828125
1696286796890,0.421875,-1.2588501,0.2645874,23.359375,17.828125,1.515625
1696286796933,0.20898438,-1.8464966,0.6390991,-13.015625,9.328125,9.5
1696286796962,0.029785156,-1.4856567,0.69866943,5.84375,-6.125,-3.75
1696286797007,0.16894531,-1.4949341,0.48406982,2.53125,-5.75,1.515625
1696286797055,0.19799805,-1.2525024,0.50994873,7.859375,-13.515625,10.828125
1696286797082,0.04248047,-0.7695923,0.42694092,16.125,-13.796875,4.421875
1696286797129,-0.075927734,-0.5630493,0.2296753,0.71875,-20.1875,4.8125
1696286797156,0.01171875,-0.44293213,0.33538818,6.234375,6.484375,3.484375
1696286797204,0.092041016,-0.3916626,0.2892456,-4.125,-0.21875,-2.390625
1696286797249,0.061523438,-0.5569458,0.24749756,-7.515625,-8.578125,-5.671875
1696286797278,0.15112305,-0.68536377,0.25701904,0.28125,-12.625,-2.8125
1696286797324,0.029296875,-0.7727661,0.22576904,1.3125,-11.1875,-2.375
1696286797353,0.16308594,-0.84088135,0.38885498,-6.578125,-13.625,0.125
1696286797399,-0.026367188,-1.0618286,0.24993896,-13.453125,-12.640625,7.828125
1696286797444,0.6135254,-1.2622681,0.13470459,-9.65625,-0.359375,30.03125
1696286797472,-0.08886719,-1.7146606,0.67230225,-9.328125,-3.984375,13.953125
1696286797519,-0.59594727,-1.5093384,0.5194702,-2.515625,3.078125,-11.40625
1696286797547,0.20825195,-1.5842896,0.4430542,-9.625,5.8125,-9.890625
1696286797595,0.45483398,-1.3706665,0.5285034,11.578125,10.203125,5.09375
1696286797639,-0.3659668,-0.7583618,0.42352295,20.625,3.640625,-4.78125
1696286797668,-0.23852539,-0.63116455,0.12786865,8.953125,3.90625,-9.46875
1696286797714,0.13085938,-0.55963135,0.14251709,12.21875,1.484375,1.765625
1696286797760,0.030029297,-0.6201782,0.14324951,1.640625,-4.96875,3.0
1696286797787,-0.115234375,-0.5232544,0.23846436,-3.59375,-3.265625,2.578125
1696286797834,-0.107177734,-0.47735596,0.16326904,-13.671875,4.125,3.1875
1696286797862,0.053222656,-0.5767212,0.2843628,-16.0625,0.328125,-1.703125
1696286797908,-0.092285156,-0.7058716,0.2958374,-13.5,3.5,-1.015625
1696286797954,-0.061523438,-0.83135986,0.26483154,-5.546875,-3.625,-9.0
1696286797982,0.35253906,-1.1177368,0.46136475,-9.28125,-2.90625,-8.75
1696286798029,0.5148926,-1.6360474,0.74823,-12.6875,-3.6875,3.625
1696286798057,-0.20581055,-1.5388794,0.60614014,11.34375,3.03125,6.6875
1696286798106,-0.014160156,-1.6697388,0.715271,1.40625,-3.25,-8.578125
1696286798149,0.6459961,-1.5066528,0.7103882,12.5625,-7.765625,6.515625
1696286798177,0.055908203,-0.97979736,0.4928589,15.03125,-15.265625,15.109375
1696286798225,-0.32592773,-0.70562744,0.18548584,14.25,-12.796875,-1.59375
1696286798252,0.25854492,-0.5654907,0.24578857,9.0625,-8.46875,2.703125
1696286798300,0.2590332,-0.52423096,0.33099365,-6.015625,-3.28125,8.234375
1696286798343,0.10180664,-0.48492432,0.19036865,-9.0625,-16.46875,8.421875
1696286798373,0.24291992,-0.5003052,0.4022827,-1.578125,-13.515625,5.375
1696286798418,-0.056396484,-0.52545166,0.31707764,-3.109375,-41.640625,0.265625
1696286798464,0.056396484,-0.7390747,0.48944092,-6.109375,-45.53125,-5.203125
1696286798491,0.1003418,-0.7991333,0.40252686,1.484375,-40.875,3.640625
1696286798539,-0.06738281,-0.68048096,0.48016357,5.875,-35.828125,4.21875
1696286798567,-0.005126953,-1.0442505,0.35809326,-5.71875,-49.46875,4.703125
1696286798614,0.2993164,-1.4563599,0.47772217,-28.734375,-37.734375,17.421875
1696286798657,-0.044189453,-1.602356,0.31585693,-25.84375,-11.703125,6.46875
1696286798687,-0.47753906,-1.4160767,0.8156128,-11.90625,-9.375,-14.84375
1696286798734,0.21801758,-1.2835083,0.73602295,11.125,-38.1875,-1.484375
1696286798761,0.13891602,-1.0227661,0.6444702,-0.953125,-19.140625,8.421875
1696286798809,-0.17456055,-0.7854614,0.33050537,10.796875,-29.0625,13.234375
1696286798854,-0.13696289,-0.6199341,0.27337646,12.296875,-22.921875,11.1875
1696286798882,-0.15161133,-0.56451416,0.23431396,15.828125,-24.40625,6.671875
1696286798929,-0.17626953,-0.5293579,0.24578857,20.875,-24.15625,7.015625
1696286798957,-0.13842773,-0.600647,0.21868896,19.109375,-16.734375,10.828125
1696286799005,0.1237793,-0.4336548,0.31219482,11.25,-6.4375,16.359375
1696286799047,-0.0029296875,-0.6621704,0.3024292,7.015625,-25.078125,14.546875
1696286799077,-0.26367188,-0.9038696,0.42425537,0.75,-28.15625,11.171875
1696286799124,-0.42358398,-0.86602783,0.43475342,3.4375,-15.375,-0.671875
1696286799168,-0.14550781,-1.284729,0.06707764,-25.25,-4.546875,-10.0625
1696286799198,0.9421387,-1.8215942,0.22991943,10.328125,-28.515625,0.9375
1696286799242,1.0053711,-1.7302856,0.66400146,-5.28125,-31.96875,17.171875
1696286799273,-1.0339355,-1.7825317,0.31658936,11.859375,-27.953125,22.78125
1696286799319,0.45874023,-1.3150024,0.36712646,13.21875,-25.21875,2.0
1696286799365,0.36132812,-0.956604,0.33270264,9.6875,-27.296875,24.953125
1696286799391,-0.123535156,-0.77227783,0.2333374,16.5,-24.90625,16.078125
1696286799440,-0.005126953,-0.47735596,0.24603271,21.09375,-20.109375,5.984375
1696286799468,0.12597656,-0.36187744,0.17327881,16.09375,-22.890625,11.0
1696286799514,0.119628906,-0.56817627,0.30023193,7.328125,-22.28125,12.765625
1696286799560,0.06298828,-0.7022095,0.3390503,-1.734375,-26.96875,9.328125
1696286799587,0.096191406,-0.87823486,0.37591553,-6.71875,-30.15625,5.59375
1696286799634,0.1616211,-1.2410278,0.6400757,-19.296875,-36.515625,-1.375
1696286799662,-0.22729492,-1.4539185,0.3241577,1.265625,-45.671875,-16.453125
1696286799708,0.43164062,-1.4815063,0.19598389,-12.984375,-30.109375,2.21875
1696286799770,0.7390137,-1.1299438,6.713867E-4,23.53125,-14.25,29.234375
1696286799781,0.095703125,-0.8233032,0.09661865,11.375,-32.953125,15.6875
1696286799828,0.107177734,-0.89068604,0.19281006,-14.65625,-43.890625,3.640625
1696286799874,0.42114258,-1.1489868,0.18084717,-8.171875,-52.734375,16.875
1696286799901,0.025390625,-1.0046997,0.15179443,22.90625,-56.1875,12.109375
1696286799949,-0.03540039,-0.66729736,0.10662842,15.921875,-62.5625,5.953125
1696286799978,0.21972656,-0.82354736,0.1395874,7.421875,-60.875,9.515625
1696286800023,0.115234375,-0.9981079,0.23236084,13.28125,-71.28125,14.46875
1696286800069,-0.01953125,-0.93634033,0.22821045,16.984375,-63.21875,10.25
1696286800097,0.008300781,-0.8987427,0.2489624,5.828125,-57.109375,13.09375
1696286800144,0.033935547,-0.87677,0.22869873,2.46875,-46.046875,7.25
1696286800173,0.16455078,-1.0042114,0.3300171,-10.421875,-53.09375,7.25
1696286800219,0.11450195,-0.9795532,0.29656982,2.6875,-56.046875,13.265625
1696286800264,-0.17944336,-0.9771118,0.35443115,3.984375,-63.359375,3.703125
1696286800293,0.12036133,-1.1372681,0.168396,-8.53125,-82.4375,12.703125
1696286800340,0.75,-1.2991333,0.34588623,14.765625,-68.0,19.984375
1696286800382,0.5932617,-0.8237915,0.28363037,35.6875,-59.59375,27.96875
1696286800413,-0.3173828,-0.95440674,0.19793701,5.8125,-74.96875,16.828125
1696286800457,0.20288086,-1.2703247,0.25360107,11.140625,-55.578125,12.609375
1696286800486,0.22241211,-0.93585205,0.27923584,13.6875,-42.21875,-0.1875
1696286800535,0.08300781,-0.6873169,0.29925537,7.515625,-35.171875,4.546875
1696286800579,0.18408203,-0.71661377,0.31707764,4.46875,-39.4375,12.6875
1696286800607,0.2619629,-0.8296509,0.3151245,5.46875,-41.84375,10.21875
1696286800654,0.25854492,-0.84698486,0.31121826,8.953125,-39.71875,13.34375
1696286800730,0.16430664,-0.84454346,0.4015503,4.671875,-46.71875,7.921875
1696286800733,-0.05078125,-0.83258057,0.34832764,0.53125,-40.265625,0.796875
1696286800773,0.04345703,-0.90338135,0.2772827,-4.5,-24.234375,-4.796875
1696286800802,0.09057617,-1.1921997,0.17694092,-22.546875,-35.640625,-10.671875
1696286800848,0.32299805,-1.2488403,0.16473389,-3.9375,3.953125,-1.921875
1696286800877,0.072021484,-0.7588501,0.12738037,15.203125,22.96875,3.984375
1696286800924,0.42797852,-0.8953247,0.21307373,-7.09375,-14.984375,6.453125
1696286800968,0.30688477,-1.3865356,0.4003296,-13.34375,-14.5625,13.0625
1696286800997,-0.14111328,-1.0869751,0.18426514,22.109375,-4.796875,4.375
1696286801044,-0.07128906,-0.5166626,0.027526855,19.265625,-0.921875,-2.640625
1696286801089,0.103027344,-0.6831665,0.13739014,3.640625,-1.25,6.078125
1696286801117,0.01928711,-0.7112427,0.13446045,2.578125,-5.96875,0.484375
1696286801164,0.009521484,-0.68634033,0.14788818,5.453125,-12.46875,-1.625
1696286801193,0.14794922,-0.76397705,0.15252686,-1.390625,-10.59375,0.28125
1696286801239,-0.08178711,-0.772522,0.17303467,-7.5625,-18.421875,1.96875
1696286801283,-0.08325195,-0.7149048,0.0680542,-1.703125,-13.703125,-6.171875
1696286801312,-0.037353516,-0.5889282,0.12445068,3.109375,-0.890625,-5.28125
1696286801359,0.1472168,-0.8633423,0.0040893555,-23.375,-13.34375,-5.046875
1696286801387,0.52124023,-1.3218384,0.39569092,-20.375,17.6875,5.828125
1696286801434,0.55029297,-1.6414185,0.6210327,14.046875,-8.9375,5.34375
1696286801479,0.17504883,-1.7756958,0.6066284,-34.09375,6.375,-0.46875
1696286801507,0.41357422,-1.4749146,0.48358154,8.640625,-5.640625,-5.1875
1696286801554,0.05859375,-1.2356567,0.49969482,7.375,-1.328125,6.296875
1696286801582,0.051757812,-0.8233032,0.31585693,15.5625,3.3125,-7.203125
1696286801632,0.21362305,-0.6687622,0.35369873,0.4375,4.234375,3.5625
1696286801671,-0.011230469,-0.43951416,0.17645264,0.125,6.96875,-5.84375
1696286801700,0.10058594,-0.3032837,0.14788818,-7.140625,0.265625,-8.65625
1696286801748,0.12817383,-0.5557251,0.35931396,-15.859375,5.375,-6.859375
1696286801824,0.064697266,-0.6721802,0.04901123,7.359375,-1.359375,2.5625
1696286801827,0.24584961,-0.7024536,0.539978,-0.546875,-6.4375,-4.3125
1696286801868,-0.107666016,-0.81817627,0.08441162,1.53125,-4.234375,-0.015625
1696286801897,0.32983398,-0.99468994,0.15032959,-18.8125,-3.15625,1.453125
1696286801944,0.41455078,-1.444397,0.30047607,-35.140625,-1.671875,3.671875
1696286801986,-0.14477539,-2.0,0.5414429,2.453125,17.765625,10.40625
1696286802018,0.022705078,-1.3955688,0.6913452,-1.734375,9.59375,-14.6875
1696286802065,-0.1303711,-1.3403931,0.37591553,-10.921875,6.0625,-10.4375
1696286802092,0.1484375,-1.0547485,0.24603271,5.71875,2.546875,-6.4375
1696286802139,0.19555664,-0.7510376,0.1630249,9.5,-11.125,8.84375
1696286802184,0.078125,-0.7510376,0.10028076,15.515625,-23.78125,-2.421875
1696286802212,-0.12939453,-0.553772,0.11981201,29.40625,-18.265625,-2.5
1696286802257,-0.19335938,-0.39483643,0.1227417,9.859375,-3.265625,2.375
1696286802288,-0.119140625,-0.63165283,0.05706787,-16.3125,3.875,7.234375
1696286802334,0.1430664,-0.73101807,0.24188232,3.984375,18.828125,-2.21875
1696286802379,-0.19213867,-0.56451416,0.10760498,-5.546875,26.3125,-3.484375
1696286802408,0.09277344,-0.6460571,0.022888184,2.109375,6.328125,-9.375
1696286802455,0.60961914,-1.1062622,0.13494873,-18.15625,17.859375,2.65625
1696286802497,0.6723633,-1.6726685,0.62054443,5.734375,15.484375,10.671875
1696286802526,-0.24633789,-1.6541138,0.76849365,1.125,11.765625,-8.59375
1696286802573,0.2685547,-1.8291626,0.5031128,11.03125,-4.453125,1.484375
1696286802602,0.2607422,-1.4129028,0.29412842,12.28125,-5.75,-5.609375
1696286802649,0.1772461,-0.99176025,0.38739014,5.953125,-15.609375,-0.1875
1696286802694,-0.060302734,-0.7268677,0.2531128,9.75,-13.09375,-4.03125
1696286802722,0.061523438,-0.6428833,0.22137451,-1.984375,-4.078125,-4.375
1696286802768,0.087402344,-0.50665283,0.23260498,-4.703125,0.625,-3.453125
1696286802797,-0.0234375,-0.33868408,0.17352295,3.234375,7.234375,-4.484375
1696286802844,0.026611328,-0.42486572,0.09881592,5.09375,17.1875,-3.59375
1696286802889,0.30566406,-0.6939087,0.28338623,-12.84375,5.015625,3.59375
1696286802916,0.22485352,-0.8484497,0.33465576,-3.53125,-3.4375,-0.421875
1696286802964,-0.034423828,-0.7908325,0.29632568,-10.390625,0.59375,1.359375
1696286803007,-0.03540039,-1.0825806,0.20037842,-22.171875,3.734375,9.03125
1696286803037,0.52685547,-1.4172974,0.093444824,-26.78125,8.46875,18.5625
1696286803084,0.22460938,-1.862854,0.6281128,-2.515625,-0.5625,8.9375
1696286803112,-0.29492188,-1.5003052,0.4694214,-10.140625,-4.640625,4.25
1696286803160,0.18115234,-1.5256958,0.3859253,-7.953125,-6.0,0.90625
1696286803203,-0.1616211,-1.006897,0.34954834,2.5625,14.4375,-6.140625
1696286803249,-0.19433594,-0.7349243,0.07684326,14.265625,12.546875,-11.890625
1696286803277,0.35986328,-0.5869751,0.1251831,5.734375,5.828125,3.0625
1696286803307,0.080566406,-0.5720825,0.1552124,7.640625,-1.21875,1.734375
1696286803354,-0.1340332,-0.51275635,0.22015381,6.046875,-4.28125,-2.859375
1696286803399,-0.18603516,-0.5598755,0.1486206,-7.203125,-0.640625,-0.921875
1696286803427,-0.07543945,-0.58306885,0.24212646,3.40625,12.15625,-7.921875
1696286803475,0.040527344,-0.5474243,0.18890381,-9.625,3.015625,-0.359375
1696286803502,0.06713867,-0.8899536,0.09906006,-27.90625,18.953125,-5.9375
1696286803550,1.0383301,-1.5862427,0.45355225,-23.171875,-11.03125,13.4375
1696286803594,0.20263672,-1.5183716,0.6286011,12.90625,-6.3125,1.875
1696286803622,-0.3491211,-1.9197388,0.6793823,-10.890625,3.546875,1.078125
1696286803670,0.70654297,-1.4714966,0.5343628,0.921875,1.375,-11.015625
1696286803713,0.043945312,-1.239563,0.49676514,9.9375,-11.984375,4.8125
1696286803742,-0.18457031,-0.8772583,0.29608154,12.375,-5.015625,-11.265625
1696286803789,0.29345703,-0.5708618,0.28070068,13.703125,0.1875,-4.046875
1696286803816,0.11035156,-0.46002197,0.27386475,3.671875,-2.546875,3.25
1696286803862,-0.040527344,-0.3526001,0.2929077,1.3125,2.859375,-5.671875
1696286803907,0.008056641,-0.3838501,0.14105225,-2.90625,-1.796875,-10.640625
1696286803937,0.15844727,-0.5630493,0.3287964,3.984375,-1.0,-9.8125
1696286803982,0.055419922,-0.75372314,0.32147217,9.734375,4.21875,-3.5625
1696286804012,0.12109375,-0.85357666,0.277771,20.921875,-9.015625,2.0
1696286804057,0.10986328,-0.913147,0.36444092,11.375,-11.75,-4.921875
1696286804102,0.1640625,-1.1370239,0.18621826,4.90625,-24.625,8.3125
1696286804132,0.36010742,-1.4324341,0.21795654,-10.0625,-28.953125,13.484375
1696286804194,-0.0107421875,-1.5237427,0.2411499,-6.0,-10.3125,11.78125
1696286804206,-0.18798828,-1.3743286,0.4244995,-16.453125,-23.484375,-10.421875
1696286804255,0.14697266,-1.4421997,0.5783081,-28.78125,-24.96875,-4.609375
1696286804299,-0.07836914,-1.0007935,0.2645874,5.1875,-16.453125,-3.375
1696286804328,-0.11279297,-0.70098877,0.17596436,4.578125,-17.40625,-3.21875
1696286804374,0.024902344,-0.62994385,0.15008545,16.90625,-18.90625,5.140625
1696286804416,0.001953125,-0.59332275,0.21087646,5.859375,-17.984375,8.421875
1696286804446,-0.15527344,-0.6174927,0.29412842,1.96875,-21.484375,8.71875
1696286804495,-0.064941406,-0.6074829,0.15985107,7.609375,-21.65625,10.359375
1696286804523,0.014404297,-0.6382446,0.25726318,16.28125,-17.109375,12.5
1696286804570,0.11376953,-0.88531494,0.07293701,11.84375,-37.171875,21.828125
1696286804614,0.08154297,-1.0352173,-0.04449463,8.25,-50.796875,8.5625
1696286804642,0.36450195,-1.506897,0.15814209,10.5625,-43.375,13.609375
1696286804689,0.9814453,-2.0,0.84246826,-12.875,-41.40625,18.3125
1696286804717,-0.22607422,-1.7654419,0.34979248,4.46875,-17.421875,0.328125
1696286804764,0.30810547,-1.2817993,0.4796753,3.359375,-24.9375,13.546875
1696286804808,0.4206543,-1.0686646,0.38226318,18.171875,-27.078125,11.203125
1696286804837,0.02734375,-0.694397,0.22479248,25.203125,-28.296875,12.96875
1696286804883,0.18237305,-0.47247314,0.20501709,23.1875,-26.796875,10.921875
1696286804912,0.25024414,-0.5996704,0.23553467,12.671875,-28.484375,11.453125
1696286804959,0.18847656,-0.61920166,0.1798706,10.125,-37.421875,13.203125
1696286805003,0.2878418,-0.7485962,0.33392334,4.0,-42.265625,8.21875
1696286805033,0.17016602,-0.9841919,0.35369873,1.484375,-48.875,2.5
1696286805078,0.1237793,-1.0549927,0.5726929,0.40625,-44.203125,-3.390625
1696286805124,-0.10107422,-0.88775635,0.42913818,-0.203125,-30.34375,-10.671875
1696286805151,0.057373047,-0.90093994,0.48284912,-7.375,-25.859375,-14.5
1696286805199,0.36669922,-1.1343384,0.25628662,-8.515625,-38.234375,-3.859375
1696286805228,0.92041016,-1.3823853,0.038024902,-5.40625,-46.0625,25.734375
1696286805274,0.42211914,-1.0650024,0.12054443,0.15625,-39.828125,24.765625
1696286805316,-0.27124023,-0.86138916,-0.093322754,4.703125,-39.40625,3.375
1696286805347,0.70874023,-1.1152954,0.1930542,-14.46875,-63.921875,14.125
1696286805394,0.34594727,-1.2544556,0.17181396,6.828125,-64.75,21.375
1696286805423,-0.084472656,-0.8467407,0.09320068,17.953125,-65.75,11.578125
1696286805470,0.22949219,-0.74420166,0.21600342,11.21875,-75.203125,13.140625
1696286805511,0.13745117,-0.91534424,0.10638428,9.796875,-67.875,15.234375
1696286805543,0.045410156,-0.8933716,0.20770264,19.359375,-66.859375,12.40625
1696286805587,-0.020751953,-0.83477783,0.293396,18.875,-58.375,11.0
1696286805631,0.02709961,-0.88946533,0.32318115,14.90625,-49.40625,11.28125
1696286805661,0.11669922,-0.84747314,0.3307495,11.625,-51.09375,8.34375
1696286805707,0.13500977,-0.9234009,0.26776123,5.625,-55.953125,9.484375
1696286805736,0.14013672,-0.97442627,0.31951904,-1.140625,-62.0625,11.109375
1696286805784,-0.13549805,-1.0005493,0.33758545,-4.046875,-64.984375,3.078125
1696286805827,0.05126953,-1.0588989,0.06439209,9.90625,-70.28125,1.5
1696286805856,1.017334,-0.82476807,0.47088623,55.828125,-57.5625,28.5625
1696286805901,0.54003906,-0.96417236,0.43084717,16.171875,-72.921875,21.96875
1696286805931,-0.3232422,-1.5117798,0.2592163,4.765625,-67.140625,7.09375
1696286805980,0.40600586,-1.1143188,0.199646,17.21875,-45.703125,4.578125
1696286806022,0.17333984,-0.87042236,0.4225464,4.359375,-37.578125,-5.328125
1696286806052,-0.037353516,-0.8569946,0.34100342,10.15625,-37.234375,0.78125
1696286806100,0.25170898,-0.6514282,0.21575928,9.828125,-31.53125,-0.5625
1696286806128,0.26879883,-0.77423096,0.37908936,-2.265625,-25.4375,5.5
1696286806189,0.08642578,-0.8435669,0.24969482,5.25,-33.796875,1.640625
1696286806215,0.10058594,-0.79888916,0.29388428,5.0,-24.078125,-3.71875
1696286806265,0.03540039,-0.84552,0.27850342,-0.375,-22.78125,-7.375
1696286806292,0.3059082,-0.90802,0.13787842,-6.484375,-26.421875,0.703125
1696286806339,0.23657227,-1.281311,0.3065796,-28.890625,-10.421875,6.75
1696286806367,0.10839844,-1.0935669,0.11541748,14.640625,14.078125,5.203125
1696286806414,0.12109375,-0.8743286,0.18450928,-5.09375,-13.796875,7.734375
1696286806442,0.31152344,-1.223938,0.32733154,-7.140625,-24.953125,14.0625
1696286806490,0.0048828125,-1.1316528,0.36419678,7.71875,-3.578125,4.296875
1696286806534,-0.029785156,-0.74176025,0.08929443,6.390625,-5.546875,1.859375
1696286806562,0.026855469,-0.6050415,0.18035889,8.078125,-5.109375,7.578125
1696286806609,0.053222656,-0.69000244,0.19622803,-3.125,-3.875,4.046875
1696286806638,0.17480469,-0.6174927,0.13909912,6.0,-18.703125,2.625
1696286806684,-0.051757812,-0.6741333,0.23724365,-13.34375,-19.859375,4.078125
1696286806728,-0.055664062,-0.7581177,0.2140503,-10.921875,-20.1875,-1.9375
1696286806755,-0.017822266,-0.829895,0.26776123,-15.421875,-12.40625,3.328125
1696286806805,0.010009766,-0.72735596,0.22625732,-3.453125,-6.65625,-5.71875
1696286806832,0.056884766,-0.7485962,0.14910889,5.390625,-12.953125,-8.0
1696286806876,0.3918457,-0.87628174,0.15814209,5.921875,-0.90625,1.671875
1696286806923,0.39868164,-1.3428345,0.47869873,-19.328125,-9.8125,20.28125
1696286806952,0.0068359375,-1.7280884,0.42230225,1.34375,-1.9375,-2.78125
1696286806996,0.4921875,-1.2214966,0.5861206,20.96875,-3.046875,-7.1875
1696286807040,0.06567383,-1.1499634,0.34295654,0.359375,-6.828125,1.96875
1696286807071,-0.056396484,-0.90167236,0.32147217,12.609375,2.15625,-0.984375
1696286807116,0.12719727,-0.82598877,0.4623413,-2.125,7.046875,1.3125
1696286807146,-0.0034179688,-0.90753174,0.33709717,-10.234375,13.953125,-1.65625
1696286807194,0.2055664,-0.8233032,0.35638428,-2.34375,11.5625,-13.921875
1696286807236,0.3227539,-0.7185669,0.2868042,-3.75,5.75,-3.203125
1696286807265,0.09643555,-0.54766846,0.2633667,9.953125,15.234375,1.3125
1696286807328,-0.07470703,-0.17437744,-0.16143799,27.6875,15.578125,14.578125
1696286807341,0.14135742,-0.6109009,-0.0076293945,-27.125,-3.25,12.875
1696286807387,0.34301758,-1.8809204,0.42132568,-57.5,-17.609375,-6.015625
1696286807434,-0.016845703,-1.9534302,0.53118896,23.28125,-7.1875,22.78125
1696286807462,0.1953125,-0.9006958,0.387146,18.78125,-12.109375,-12.234375
1696286807509,-0.10131836,-0.8833618,0.3739624,-8.1875,-24.015625,-5.078125
1696286807536,-0.01586914,-0.89971924,0.2880249,-0.484375,-27.296875,-4.953125
1696286807601,-0.088134766,-0.5484009,-0.028381348,17.203125,-28.09375,-15.0
1696286807628,0.16821289,-0.20245361,-0.016418457,38.171875,-10.21875,-1.640625
1696286807657,0.016601562,-0.11993408,-0.0647583,16.90625,-10.859375,5.15625
1696286807703,0.1772461,-1.0286255,0.32269287,-50.9375,27.9375,6.171875
1696286807747,0.6723633,-1.7703247,0.46600342,-1.46875,-4.0,-3.53125
1696286807776,0.30810547,-1.7546997,0.8241577,-19.109375,-4.421875,9.71875
1696286807823,0.045166016,-1.43219,0.5570679,9.375,-26.4375,-19.28125
1696286807852,0.06274414,-1.3132935,0.6586304,-10.4375,5.875,3.890625
1696286807900,-0.2541504,-0.4602661,0.13006592,26.265625,19.109375,-9.359375
1696286807944,0.07739258,0.09051514,0.06976318,13.4375,18.640625,-1.828125
1696286807973,0.060791016,0.20452881,-0.043273926,-3.171875,35.796875,-1.265625
1696286808019,0.10595703,-0.6704712,-0.28277588,-20.71875,1.296875,9.71875
1696286808047,0.62646484,-1.2276001,0.33709717,-83.625,-32.671875,1.0625
1696286808094,-0.5859375,-2.0,0.8060913,-16.734375,-21.0625,-0.171875
1696286808139,0.3256836,-1.1692505,0.52508545,42.03125,-12.28125,-7.828125
1696286808168,-0.09814453,-0.94317627,0.494812,-12.15625,-41.984375,-2.875
1696286808214,-0.2121582,-1.005188,0.15032959,29.15625,-27.3125,-8.703125
1696286808242,0.079589844,-0.18121338,0.09661865,48.171875,-34.796875,-4.65625
1696286808288,0.052734375,-0.009338379,-0.006164551,46.21875,-7.90625,1.828125
1696286808332,-0.012451172,-0.33917236,-0.066711426,-13.578125,-20.734375,14.4375
1696286808362,0.33935547,-1.2371216,0.37298584,-48.359375,-23.671875,0.53125
1696286808407,0.15893555,-2.0,0.8595581,-1.296875,-2.609375,4.375
1696286808451,0.24560547,-1.2503052,0.6022339,10.5625,-11.21875,11.953125
1696286808480,0.19042969,-1.116272,0.6535034,5.046875,-10.265625,-6.03125
1696286808527,-0.31689453,-1.0515747,0.4100952,6.265625,-8.5,5.84375
1696286808557,0.36328125,-0.5786743,0.45672607,15.40625,-22.609375,-9.140625
1696286808604,0.14501953,-0.50079346,0.25946045,-6.125,-22.9375,5.6875
1696286808649,-0.2199707,-0.49102783,-0.17437744,11.09375,-18.140625,12.375
1696286808678,0.3569336,-0.8477173,0.035827637,-25.625,-30.46875,23.5
1696286808723,0.52368164,-1.5234985,0.1984253,-25.53125,-34.6875,21.46875
1696286808752,-0.016113281,-1.927063,0.664978,0.203125,-33.578125,19.703125
1696286808798,-0.20239258,-1.3171997,0.3139038,4.078125,-17.296875,6.453125
1696286808841,-0.008300781,-0.9819946,0.40008545,5.734375,-10.09375,-6.71875
1696286808871,0.022705078,-0.78619385,0.20428467,14.328125,-9.8125,7.34375
1696286808916,0.1508789,-0.54693604,0.24945068,13.75,-18.78125,4.140625
1696286808962,-0.24121094,-0.56036377,0.27337646,-0.953125,-16.84375,1.796875
1696286808992,-0.21582031,-0.6279907,0.15081787,-9.296875,-9.328125,-3.21875
1696286809037,0.15209961,-0.8242798,0.2723999,-17.109375,0.796875,3.34375
1696286809068,-0.075927734,-0.8970337,0.38104248,-7.265625,-3.390625,-8.46875
1696286809112,-0.0625,-0.6524048,0.26971436,9.71875,-12.59375,-8.0625
1696286809157,0.36791992,-1.1504517,0.25897217,-38.328125,-18.34375,6.53125
1696286809187,1.0146484,-1.71344,0.5321655,-28.609375,-36.203125,11.765625
1696286809232,-0.07836914,-2.0,0.6112671,22.28125,2.84375,12.59375
1696286809307,0.52612305,-1.4924927,0.4664917,13.875,-28.328125,1.78125
1696286809309,0.43676758,-1.1714478,0.4550171,17.671875,-22.21875,13.390625
1696286809352,-0.14892578,-0.7605591,0.27703857,33.25,-26.515625,7.9375
1696286809382,0.01928711,-0.38580322,0.20770264,26.171875,-33.484375,4.84375
1696286809427,0.25341797,-0.32843018,0.1642456,7.515625,-14.4375,13.234375
1696286809456,0.23510742,-0.49713135,0.28240967,11.203125,-20.203125,12.671875
1696286809503,0.17504883,-0.6663208,0.32855225,6.625,-35.734375,3.34375
1696286809547,0.15356445,-0.8394165,0.3143921,6.859375,-44.46875,-2.390625
1696286809577,0.2836914,-1.0557251,0.45794678,15.1875,-42.296875,6.140625
1696286809623,-0.15942383,-1.6758423,0.3373413,-9.140625,-51.28125,-14.609375
1696286809697,0.53222656,-1.9490356,0.18548584,7.984375,-32.203125,-6.609375
1696286809699,0.9177246,-1.0161743,0.031921387,28.3125,-22.421875,19.40625
1696286809742,-0.15307617,-0.5081177,0.059020996,-2.640625,-38.90625,10.390625
1696286809771,0.18798828,-0.9204712,-0.05621338,-14.21875,-64.84375,14.234375
1696286809817,0.46557617,-1.0405884,0.23699951,11.03125,-42.84375,15.046875
1696286809862,0.115478516,-0.8015747,0.113708496,14.703125,-54.53125,13.109375
1696286809892,0.052978516,-0.80792236,0.015563965,15.515625,-63.578125,6.609375
1696286809937,0.31079102,-1.0403442,0.12567139,13.515625,-63.0625,9.375
1696286809967,0.08544922,-0.93218994,0.22161865,25.203125,-61.609375,3.71875
1696286810013,-0.05834961,-0.8765259,0.1359253,16.6875,-60.25,3.28125
1696286810057,0.06713867,-0.84747314,0.23040771,11.25,-48.9375,1.265625
1696286810087,0.046875,-0.8440552,0.21234131,2.515625,-41.296875,3.203125
1696286810133,0.15600586,-0.93756104,0.24725342,-17.03125,-41.59375,4.34375
1696286810162,0.27978516,-1.0584106,0.2526245,-6.765625,-50.765625,5.3125
1696286810207,0.14477539,-1.0715942,0.3204956,0.6875,-62.90625,13.1875
1696286810252,0.30322266,-0.9817505,-0.105773926,-18.203125,-71.796875,30.796875
1696286810282,0.7553711,-0.88482666,-0.06817627,28.1875,-83.78125,36.0625
1696286810327,0.3395996,-1.1116333,0.3390503,0.921875,-87.6875,11.53125
1696286810403,-0.09301758,-1.5274048,0.215271,10.75,-69.0625,0.15625
1696286810405,0.6516113,-1.053772,0.36712646,12.578125,-49.0,10.25
1696286810447,0.2849121,-0.8726196,0.35687256,15.890625,-54.109375,3.578125
1696286810477,0.020019531,-0.68927,0.28900146,16.140625,-52.359375,4.453125
1696286810522,0.1616211,-0.5183716,0.1696167,12.734375,-47.25,-0.234375
1696286810567,0.16235352,-0.54815674,0.12689209,11.59375,-34.890625,4.421875
1696286810597,0.14770508,-0.58135986,0.30804443,4.359375,-22.5,-2.9375
1696286810642,-0.068115234,-0.52545166,0.17010498,-0.015625,-29.640625,-12.09375
1696286810672,0.3293457,-0.67071533,0.4454956,-2.25,-32.203125,-12.421875
1696286810717,-0.06518555,-0.95562744,0.5307007,-17.34375,-44.609375,-18.6875
1696286810763,-0.24145508,-0.88360596,0.47235107,-6.125,-29.53125,-4.46875
1696286810791,-0.22973633,-0.8406372,0.39398193,3.875,-20.5,-27.375
1696286810837,0.33203125,-0.92193604,0.33441162,6.234375,-21.265625,-13.203125
1696286810867,0.4243164,-1.2581177,-0.14385986,-13.234375,-22.046875,0.53125
1696286810912,0.6538086,-1.288147,0.026062012,14.875,0.859375,38.53125
1696286810957,-0.21240234,-1.4026489,0.6984253,-25.15625,38.0,11.375
1696286810987,-0.47729492,-1.0945435,0.1383667,-35.046875,-4.40625,-2.1875
1696286811033,0.99316406,-1.3604126,0.21136475,13.578125,-6.28125,19.09375
1696286811077,-0.19335938,-1.2173462,0.42279053,14.546875,-11.6875,11.546875
1696286811106,-0.44628906,-0.7546997,0.18133545,8.171875,-11.375,-9.359375
1696286811152,0.3918457,-0.8491821,0.18792725,4.875,-14.828125,9.65625
1696286811182,-0.015380859,-0.84088135,0.2814331,8.1875,-13.953125,4.21875
1696286811227,-0.30078125,-0.7546997,0.14593506,2.109375,-14.46875,-9.515625
1696286811272,-0.12719727,-0.6519165,0.12884521,-19.546875,2.953125,-6.71875
1696286811302,-0.015625,-0.4475708,-0.06427002,8.0,0.34375,-6.28125
1696286811347,0.20629883,-0.08746338,0.09075928,39.609375,1.28125,1.703125
1696286811377,-0.039794922,-0.13702393,-0.25933838,1.921875,-8.078125,17.421875
1696286811422,0.5371094,-1.1897583,0.5092163,-23.21875,21.46875,4.078125
1696286811467,0.6477051,-2.0,0.62005615,-16.796875,-8.1875,4.875
1696286811497,-0.16967773,-1.6138306,0.72454834,-0.21875,3.125,4.9375
1696286811542,0.48168945,-1.3623657,0.57147217,-2.609375,1.671875,-8.359375
1696286811588,-0.0012207031,-1.2402954,0.49847412,-5.328125,10.453125,-2.484375
1696286811617,0.20239258,-0.5864868,0.20892334,7.171875,21.265625,-2.203125
1696286811662,-0.030761719,0.16400146,-0.047180176,24.296875,27.75,13.6875
1696286811692,0.04345703,0.2929077,-0.090148926,5.828125,17.6875,7.875
1696286811737,-0.0063476562,-0.38336182,-0.08892822,-13.734375,-18.375,-0.203125
1696286811783,0.717041,-0.92633057,0.113464355,-38.8125,-31.4375,27.65625
1696286811812,0.26123047,-2.0,0.59588623,-32.0625,-12.34375,-7.96875
1696286811857,-0.43530273,-1.5664673,0.30194092,22.953125,-1.34375,-14.8125
1696286811887,0.3112793,-0.78692627,0.14349365,14.0625,-12.203125,-23.921875
1696286811933,-0.07128906,-0.4517212,0.16033936,47.78125,-8.28125,-5.4375
1696286811978,-0.38720703,0.21136475,-0.013000488,25.59375,0.703125,-3.25
1696286812007,0.055419922,-0.62335205,-0.16900635,-57.984375,40.0625,3.546875
1696286812052,1.2294922,-1.5889282,0.6259155,-66.515625,-11.515625,19.3125
1696286812082,0.10839844,-2.0,0.99676514,12.9375,14.515625,-8.875
1696286812127,-0.04638672,-1.3457642,0.37005615,13.359375,4.53125,-4.15625
1696286812173,0.50683594,-1.0769653,0.6972046,-28.59375,5.5625,-14.578125
1696286812202,0.06958008,-0.76348877,0.16131592,14.375,18.96875,-1.75
1696286812247,0.022216797,0.09442139,0.24261475,13.640625,3.09375,-10.65625
1696286812292,-0.15649414,0.33709717,-0.070373535,25.71875,2.578125,2.46875
1696286812322,0.114746094,-0.54473877,-0.48516846,-35.375,-13.71875,9.125
1696286812367,0.7475586,-1.0908813,0.28607178,-59.109375,-24.375,27.609375
1696286812397,-0.4321289,-2.0,0.8612671,-17.421875,16.1875,17.203125
1696286812442,-0.12158203,-1.3701782,0.24676514,63.671875,-15.21875,-32.984375
1696286812487,0.60595703,-0.85943604,0.4628296,-27.296875,-13.5,-6.8125
1696286812516,-0.28198242,-1.0205688,0.22821045,22.375,-22.328125,-1.421875
1696286812561,-0.40698242,-0.4199829,0.2020874,-2.3125,-14.828125,-8.375
1696286812592,-0.072753906,-0.43707275,0.035339355,-5.375,0.046875,-21.40625
1696286812637,0.23120117,-0.2888794,-0.117004395,39.078125,-2.03125,-1.28125
1696286812682,0.5847168,-0.6436157,-0.028381348,9.859375,-2.453125,5.109375
1696286812712,0.56518555,-1.4400024,0.6647339,-44.59375,-9.46875,12.125
1696286812756,-0.19921875,-2.0,0.7040405,-0.078125,3.546875,-1.3125
1696286812787,0.32861328,-1.4212036,0.5504761,6.015625,-10.71875,0.0625
1696286812833,-0.0637207,-1.2307739,0.48187256,7.0,-10.125,-1.53125
1696286812877,-0.095703125,-1.0523071,0.44476318,10.0625,-3.625,-5.015625
1696286812908,0.2619629,-0.63287354,0.42156982,17.0625,6.3125,-6.65625
1696286812952,0.032226562,-0.35333252,0.27313232,6.21875,6.53125,-4.28125
1696286812998,-0.06640625,-0.3225708,0.2243042,5.40625,-2.359375,-8.78125
1696286813027,0.14160156,-0.44805908,0.13861084,7.53125,-5.890625,-2.5
1696286813072,0.44433594,-0.57891846,0.112976074,15.75,-17.359375,8.84375
1696286813101,0.2668457,-1.0447388,0.3529663,-10.828125,-39.765625,9.21875
1696286813147,-0.3671875,-1.0037231,0.41326904,6.296875,-25.1875,-5.484375
1696286813192,-0.16186523,-1.1973267,0.2526245,-17.53125,-29.703125,1.21875
1696286813221,0.5571289,-1.5230103,0.086364746,-18.8125,-16.28125,16.53125
1696286813267,0.38305664,-1.8560181,0.4147339,-20.96875,-12.046875,19.453125
1696286813297,-0.4033203,-1.5083618,0.19866943,0.546875,-14.15625,-18.15625
1696286813342,0.35717773,-1.2268677,0.40081787,5.84375,-30.0,8.71875
1696286813387,0.19335938,-0.87750244,0.260437,14.75,-15.5,13.015625
1696286813417,-0.26416016,-0.6067505,0.055847168,23.375,-17.484375,11.390625
1696286813462,0.04736328,-0.4985962,0.09832764,20.484375,-23.21875,11.515625
1696286813492,0.104003906,-0.6716919,0.20672607,5.53125,-27.171875,11.921875
1696286813537,0.010009766,-0.8428345,0.23602295,0.78125,-27.359375,12.40625
1696286813581,0.05419922,-0.9248657,0.22625732,-2.984375,-29.609375,11.46875
1696286813612,0.0703125,-1.1116333,0.25164795,-6.484375,-33.40625,13.046875
1696286813657,0.032714844,-1.2532349,0.4694214,-9.65625,-30.9375,14.265625
1696286813702,-0.09741211,-1.2088013,0.41693115,-6.40625,-33.3125,1.90625
1696286813731,0.39282227,-1.3655396,0.27386475,-12.6875,-32.140625,9.390625
1696286813779,0.83862305,-1.2017212,0.04949951,24.6875,-55.640625,27.53125
1696286813808,0.26342773,-0.6616821,0.17254639,29.703125,-44.390625,21.6875
1696286813854,-0.21826172,-0.706604,0.13421631,0.96875,-44.515625,15.609375
1696286813898,0.25732422,-1.128479,0.24920654,-4.953125,-32.796875,8.671875
1696286813928,0.3408203,-0.98931885,0.34295654,6.21875,-25.453125,2.078125
1696286813975,0.10986328,-0.770813,0.2753296,6.65625,-23.140625,4.21875
1696286814002,0.15185547,-0.69610596,0.27166748,5.0625,-20.6875,2.5
1696286814050,0.24804688,-0.79815674,0.4015503,-7.125,-20.96875,1.109375
1696286814093,0.20361328,-0.9031372,0.34613037,-0.4375,-16.34375,3.421875
1696286814123,0.18969727,-0.8423462,0.39349365,1.265625,-11.21875,-0.5
1696286814168,0.12890625,-0.78497314,0.42767334,3.328125,-8.453125,-2.90625
1696286814197,0.1027832,-0.8831177,0.38372803,1.140625,-8.296875,-6.265625
1696286814243,0.32421875,-0.8286743,0.1564331,23.203125,-12.90625,-7.8125
1696286814289,0.45751953,-1.0903931,0.69207764,-8.15625,-14.34375,12.40625
1696286814317,-0.44506836,-1.1487427,0.4647827,2.09375,-9.6875,-15.25
1696286814363,-0.024169922,-0.8838501,0.38739014,-8.125,18.03125,-15.09375
1696286814409,0.2607422,-1.0598755,0.29510498,-24.390625,4.390625,-8.53125
1696286814437,0.5905762,-1.3897095,0.30706787,-6.0,-0.390625,4.84375
1696286814484,-0.0056152344,-0.96417236,0.22406006,5.375,11.40625,-4.484375
1696286814512,-0.22143555,-0.6795044,-0.0037231445,-2.265625,38.671875,-8.265625
1696286814560,0.2626953,-0.9692993,0.049987793,-7.046875,18.703125,2.28125
1696286814602,0.2685547,-1.2068481,0.20257568,2.671875,7.3125,1.5
1696286814632,-0.068359375,-1.0244751,0.24212646,7.609375,15.203125,-3.46875
1696286814679,-0.17211914,-0.76153564,0.1798706,8.890625,22.046875,-7.40625
1696286814708,0.019042969,-0.8076782,0.15618896,3.875,19.265625,-1.578125
