# Sensor type: Respeck
# Activity type: Ascending stairs
# Activity subtype: Normal
# Subject id: s2094833
# Notes: 
timestamp,accel_x,accel_y,accel_z,gyro_x,gyro_y,gyro_z
1696287059417,-0.13989258,-1.0195923,0.074157715,-6.015625,49.453125,1.859375
1696287059463,0.052001953,-1.1611938,0.33563232,-10.890625,11.25,5.4375
1696287059491,0.21533203,-1.635315,0.1083374,-9.796875,-6.265625,17.546875
1696287059536,0.2512207,-1.7029419,-0.22808838,-18.53125,-27.71875,38.875
1696287059581,0.6994629,-1.37677,0.25213623,10.078125,12.953125,-8.65625
1696287059612,0.055664062,-0.7542114,-0.30889893,30.328125,21.953125,10.421875
1696287059656,0.6894531,-0.6109009,0.09588623,-4.234375,13.96875,9.328125
1696287059702,0.3010254,-1.2075806,0.08392334,-10.53125,10.6875,2.125
1696287059732,0.35913086,-0.8904419,0.007751465,21.875,15.046875,5.78125
1696287059777,0.30004883,-0.6067505,0.022888184,15.4375,4.65625,-0.71875
1696287059806,0.14038086,-0.6848755,0.09490967,6.328125,6.09375,4.96875
1696287059853,0.15209961,-0.6692505,0.042419434,6.515625,12.453125,4.296875
1696287059897,0.23510742,-0.6074829,0.023864746,3.859375,14.171875,1.3125
1696287059927,0.34594727,-0.78131104,0.024597168,-11.859375,-1.640625,9.859375
1696287059972,0.45288086,-1.0962524,0.16986084,-37.859375,3.109375,11.859375
1696287060049,0.15478516,-1.5044556,0.43084717,-60.1875,12.0,-3.640625
1696287060051,0.2746582,-1.5115356,0.0053100586,-7.25,1.921875,-19.515625
1696287060092,1.0148926,-1.2454224,0.03656006,-9.140625,20.671875,10.703125
1696287060122,0.27807617,-1.052063,-0.0647583,-0.734375,15.984375,-5.875
1696287060168,0.026123047,-0.7659302,-0.25274658,-1.0625,30.296875,-9.625
1696287060198,0.3828125,-0.90509033,-0.07086182,-18.046875,45.421875,-9.0625
1696287060242,0.39404297,-1.2422485,0.19622803,-17.234375,18.328125,-7.84375
1696287060287,-0.016113281,-1.0093384,0.008239746,12.53125,28.078125,5.78125
1696287060317,0.16186523,-0.5757446,-0.17120361,21.765625,28.84375,1.421875
1696287060363,0.24584961,-0.47418213,0.018493652,0.015625,38.515625,6.140625
1696287060408,0.025390625,-0.4985962,0.08319092,1.984375,15.078125,13.9375
1696287060438,0.09301758,-0.411438,0.011169434,0.609375,18.03125,6.734375
1696287060484,0.122558594,-0.76104736,0.1083374,-13.359375,12.484375,4.09375
1696287060512,0.09301758,-1.3259888,0.09320068,-23.0,-0.390625,0.84375
1696287060558,0.42626953,-1.7451782,0.109313965,-17.078125,7.140625,7.28125
1696287060605,0.52368164,-1.2669067,-0.06500244,1.90625,-13.8125,8.90625
1696287060632,0.42041016,-1.1016235,-0.09088135,-16.453125,-15.3125,13.734375
1696287060679,0.55371094,-1.2024536,0.007751465,9.46875,-22.0,-3.5
1696287060707,0.53100586,-0.76568604,-0.06549072,27.75,5.8125,1.015625
1696287060753,0.6516113,-0.8374634,0.10882568,2.15625,-20.984375,8.015625
1696287060799,0.3395996,-1.3284302,0.15570068,2.59375,-11.578125,3.71875
1696287060827,0.24902344,-0.8843384,0.02142334,27.75,-10.5625,-7.34375
1696287060875,0.36035156,-0.4751587,0.058044434,24.921875,-9.296875,-4.265625
1696287060902,0.13867188,-0.36431885,-0.004211426,14.21875,-2.296875,8.25
1696287060948,0.17163086,-0.43707275,-0.073791504,8.0625,10.15625,-0.5
1696287060994,0.35498047,-0.49786377,0.058532715,1.421875,0.59375,2.046875
1696287061022,0.2409668,-0.7161255,0.109313965,-0.125,-6.5,1.984375
1696287061067,0.4309082,-1.22052,0.09686279,-9.75,-14.84375,2.390625
1696287061144,0.42211914,-1.8504028,0.30438232,-1.828125,-14.8125,-22.5625
1696287061146,0.33691406,-1.3381958,0.04144287,15.953125,4.234375,-24.84375
1696287061186,0.8625488,-1.0198364,-0.21392822,-2.578125,-3.59375,1.703125
1696287061232,0.2487793,-1.3328247,0.22235107,-0.8125,28.28125,-2.4375
1696287061261,-0.09692383,-0.87213135,-0.55426025,-18.15625,17.359375,-20.1875
1696287061307,0.8120117,-0.6526489,-0.23809814,-3.046875,37.75,0.484375
1696287061336,0.30541992,-1.2600708,-0.07183838,-9.953125,27.921875,14.984375
1696287061383,4.8828125E-4,-0.9402466,-0.0134887695,17.453125,7.875,1.828125
1696287061412,0.3076172,-0.40167236,-0.074279785,28.859375,20.96875,11.421875
1696287061457,0.1171875,-0.3086548,-0.08502197,7.6875,7.53125,18.84375
1696287061502,-0.10083008,-0.4475708,-0.011047363,4.734375,6.3125,12.765625
1696287061531,0.13012695,-0.5552368,-0.12750244,-7.625,7.921875,12.609375
1696287061577,0.3479004,-0.92071533,-0.023742676,-28.03125,7.96875,17.140625
1696287061606,0.4555664,-1.5518188,-0.021057129,-41.6875,0.328125,13.453125
1696287061652,0.5004883,-1.6831665,0.008728027,0.78125,-10.3125,2.765625
1696287061697,0.42578125,-1.0679321,-0.12579346,-3.65625,-27.0625,4.3125
1696287061727,0.5986328,-1.1487427,-0.3399048,2.140625,-17.546875,-1.203125
1696287061771,1.0070801,-1.0542603,0.0045776367,28.90625,-4.25,-9.890625
1696287061816,0.41992188,-0.79278564,-0.144104,7.046875,-17.265625,2.328125
1696287061847,0.31225586,-0.95098877,0.085632324,-9.890625,-14.25,-3.0
1696287061891,0.41430664,-1.0403442,0.04095459,9.046875,1.890625,-4.515625
1696287061920,0.25463867,-0.74542236,-0.023498535,31.234375,-12.890625,-18.34375
1696287061966,0.35986328,-0.3665161,-0.04888916,19.171875,0.125,-5.0
1696287062011,0.26293945,-0.3965454,0.031921387,-1.578125,-3.375,6.703125
1696287062041,0.1027832,-0.51348877,0.04095459,-2.90625,-12.296875,0.90625
1696287062086,0.16552734,-0.56085205,0.062683105,-1.703125,-10.21875,-6.078125
1696287062116,0.31274414,-0.73809814,-0.037902832,-5.203125,-19.640625,1.265625
1696287062161,0.6171875,-1.2610474,0.030700684,-32.3125,-13.5,2.8125
1696287062209,0.6672363,-1.9744263,0.27923584,-42.5,1.703125,0.3125
1696287062238,0.36889648,-1.2097778,0.0758667,15.296875,6.96875,-15.25
1696287062282,0.4116211,-0.77789307,-0.2913208,36.796875,1.21875,1.265625
1696287062328,0.4489746,-1.0579224,0.13983154,-51.609375,39.171875,14.90625
1696287062357,0.03466797,-1.0376587,-0.25177002,-15.0,-22.09375,-14.375
1696287062404,0.54052734,-0.8279419,-0.5015259,-28.03125,37.328125,-0.859375
1696287062432,0.44213867,-1.3809204,0.4393921,-35.640625,37.546875,6.4375
1696287062478,0.2590332,-1.0911255,-0.07476807,7.25,-5.3125,-0.125
1696287062523,0.20629883,-0.68463135,0.06463623,17.65625,25.46875,1.78125
1696287062552,-0.017578125,-0.5261841,-0.13189697,17.203125,8.734375,1.765625
1696287062597,0.08618164,-0.40338135,0.06903076,18.5,28.328125,12.265625
1696287062626,0.040771484,-0.37774658,-0.043762207,-2.046875,14.34375,8.21875
1696287062673,0.106933594,-0.5757446,-0.06890869,-8.46875,11.8125,13.484375
1696287062718,0.17260742,-0.9378052,-0.0022583008,-23.015625,23.828125,8.8125
1696287062747,0.30371094,-1.7385864,-0.0056762695,-50.328125,7.46875,6.25
1696287062793,0.6188965,-1.6917114,0.06732178,0.65625,-5.984375,-0.5625
1696287062823,0.44604492,-1.2420044,-0.40753174,-7.625,-24.8125,15.171875
1696287062870,0.71533203,-1.2217407,-0.050109863,12.625,-3.953125,-12.03125
1696287062912,0.1706543,-0.8574829,-0.18902588,13.359375,9.125,-11.578125
1696287062941,0.50805664,-0.6104126,-0.06768799,-11.953125,25.375,-4.6875
1696287062987,0.3684082,-1.1282349,0.13079834,-29.75,27.109375,-15.609375
1696287063065,0.13671875,-1.2383423,0.02947998,-18.234375,41.1875,-19.25
1696287063068,0.15136719,-0.8743286,-0.065979004,-0.5,54.453125,-31.484375
1696287063108,0.08886719,-0.50567627,-0.018127441,-16.578125,64.46875,-26.96875
1696287063136,0.072753906,-0.5054321,-0.050354004,-22.65625,57.75,-4.5625
1696287063182,0.0234375,-0.5527954,-0.07110596,-30.9375,41.625,-9.078125
1696287063227,0.07324219,-0.7041626,-0.010803223,-7.1875,67.984375,-0.765625
1696287063257,0.05078125,-0.7288208,-0.04840088,-17.703125,64.78125,2.65625
1696287063301,-0.032714844,-0.798645,-0.09136963,-31.0625,67.671875,-2.328125
1696287063331,-0.038330078,-1.0108032,0.2243042,-40.515625,85.046875,-7.125
1696287063378,-0.059326172,-1.0933228,-0.18267822,-32.03125,58.375,-28.671875
1696287063425,0.48291016,-1.3880005,-0.38238525,-40.046875,45.59375,-0.828125
1696287063452,0.70532227,-1.5054321,-0.15557861,-5.421875,139.96875,20.375
1696287063497,-0.63061523,-0.58795166,0.01727295,-44.4375,29.046875,-8.859375
1696287063526,-0.0859375,-1.0935669,-0.5352173,-30.953125,101.453125,-15.0625
1696287063570,0.1887207,-1.7827759,0.22991943,-10.75,101.71875,-4.15625
1696287063619,-0.034179688,-0.8477173,-0.27374268,6.9375,75.328125,-3.453125
1696287063647,0.1262207,-0.46417236,-0.09454346,-10.3125,87.09375,9.921875
1696287063692,0.12207031,-0.8418579,0.08514404,-24.65625,67.3125,21.265625
1696287063768,-0.13427734,-0.82525635,-0.046691895,-7.484375,53.359375,1.203125
1696287063771,0.14160156,-0.79522705,0.036315918,-7.5625,48.34375,8.3125
1696287063813,0.07446289,-0.88897705,0.113220215,-11.71875,38.53125,9.125
1696287063842,-0.092041016,-1.2280884,0.121276855,-25.765625,29.984375,11.875
1696287063887,0.017333984,-1.5181274,0.17327881,-14.015625,27.9375,-0.59375
1696287063932,0.061279297,-1.3521118,0.05706787,-11.859375,24.703125,13.546875
1696287063962,0.33569336,-1.742981,-0.20758057,-32.40625,11.5,15.3125
1696287064009,0.6999512,-1.2058716,0.002380371,33.171875,31.359375,-18.125
1696287064037,0.61621094,-0.6680298,-0.14361572,8.265625,22.046875,7.21875
1696287064080,0.3623047,-1.0117798,0.15570068,-27.453125,17.53125,-4.546875
1696287064127,0.12963867,-1.2322388,0.015808105,-6.8125,28.78125,-9.8125
1696287064157,0.49609375,-0.6975708,-0.027648926,8.78125,30.28125,-3.859375
1696287064204,0.2631836,-0.60821533,0.121276855,5.59375,26.6875,2.609375
1696287064231,0.049072266,-0.5437622,-0.0051879883,-3.3125,27.921875,1.03125
1696287064278,0.041259766,-0.39190674,-0.011047363,1.6875,42.03125,6.53125
1696287064321,0.22241211,-0.35406494,-0.09893799,-7.265625,35.921875,11.0
1696287064352,0.2668457,-0.60406494,-0.022766113,-13.421875,32.328125,12.53125
1696287064399,0.25390625,-0.9595337,0.18743896,-19.296875,43.09375,16.734375
1696287064447,0.27978516,-1.430481,0.1281128,-38.359375,16.234375,3.59375
1696287064472,0.7062988,-2.0,0.5934448,-24.03125,14.265625,-21.734375
1696287064516,0.60595703,-1.5899048,0.109558105,21.796875,-0.375,-7.21875
1696287064548,0.2685547,-1.0271606,0.010192871,16.609375,-3.78125,-11.5625
1696287064595,0.03955078,-0.85528564,-0.25689697,-0.75,26.03125,-25.4375
1696287064638,0.49438477,-0.60528564,-0.28985596,9.0,25.65625,-26.953125
1696287064667,0.56469727,-0.89630127,-0.04547119,-44.96875,28.6875,7.71875
1696287064712,0.026855469,-1.201477,-0.031066895,-18.734375,14.8125,9.0
1696287064743,0.036132812,-0.8196411,0.025817871,14.46875,16.3125,-2.65625
1696287064787,0.18481445,-0.5093384,-0.1182251,15.6875,26.9375,9.296875
1696287064830,0.20629883,-0.39190674,-0.09625244,12.03125,17.4375,13.375
1696287064862,0.24438477,-0.37652588,-0.035949707,11.0,10.546875,15.21875
1696287064908,0.17456055,-0.5449829,0.03363037,3.734375,4.109375,14.8125
1696287064952,0.1262207,-0.9273071,0.1281128,-4.0,-8.890625,7.609375
1696287064982,0.16430664,-1.5508423,0.2506714,-19.671875,5.671875,-0.5625
1696287065029,0.27246094,-1.7717896,0.16009521,-18.390625,3.65625,-6.953125
1696287065057,0.32495117,-1.1694946,-0.12359619,2.484375,-13.71875,6.34375
1696287065101,0.6604004,-1.3589478,-0.29034424,-6.5625,-2.734375,-1.34375
1696287065148,0.6245117,-1.1257935,0.08929443,32.875,-2.8125,-13.984375
1696287065178,0.12231445,-0.739563,-0.31158447,26.140625,2.890625,-14.28125
1696287065222,0.44458008,-0.84332275,0.1774292,-3.828125,2.25,-6.828125
1696287065252,0.25073242,-0.9421997,-0.07232666,12.046875,-16.09375,-10.59375
1696287065300,0.16625977,-0.73150635,-0.02130127,17.625,-28.484375,-13.296875
1696287065342,0.20898438,-0.50250244,-0.03643799,23.46875,-11.890625,-11.046875
1696287065374,0.234375,-0.31134033,-0.032043457,13.671875,-8.90625,6.921875
1696287065416,0.18041992,-0.6157837,-0.0029907227,2.953125,-19.953125,8.71875
1696287065448,0.1081543,-0.84552,0.054382324,2.328125,-24.734375,8.15625
1696287065495,0.16821289,-1.1521606,-0.00592041,5.03125,-23.609375,4.4375
1696287065537,0.25219727,-1.4546509,0.08294678,-4.1875,-3.34375,4.453125
1696287065566,0.50634766,-1.6519165,0.26849365,-13.75,-9.234375,-12.640625
1696287065613,0.18139648,-1.2595825,0.17425537,-8.15625,1.5625,-15.03125
1696287065657,0.35595703,-0.9517212,-0.27618408,-12.8125,-5.015625,-10.71875
1696287065687,0.9003906,-1.0474243,-0.1560669,-14.8125,3.5625,16.0
1696287065732,-0.17626953,-1.1900024,-0.066223145,-31.46875,5.03125,-5.015625
1696287065762,-0.39819336,-0.8682251,-0.7114868,-7.078125,41.328125,-28.671875
1696287065807,0.6682129,-0.9221802,0.14569092,-11.0625,19.296875,-2.9375
1696287065855,0.3720703,-1.1919556,0.0036010742,-4.328125,7.09375,10.84375
1696287065881,-0.15844727,-0.7749634,-0.109680176,14.4375,15.6875,4.828125
1696287065928,0.14135742,-0.3982544,-0.17559814,29.609375,15.609375,11.8125
1696287065957,0.2932129,-0.4578247,0.015808105,20.578125,9.21875,15.421875
1696287066003,0.033935547,-0.52667236,-0.012756348,20.109375,7.5625,10.375
1696287066048,0.10522461,-0.69903564,0.006286621,1.5625,0.203125,18.96875
1696287066077,0.19726562,-1.1997681,0.066589355,-40.140625,1.84375,19.703125
1696287066121,0.2854004,-1.781311,0.10272217,-32.125,3.8125,6.5625
1696287066168,0.107421875,-1.62677,0.10687256,-10.4375,-4.546875,-3.9375
1696287066197,0.3449707,-1.3140259,-0.41583252,17.5625,1.515625,-9.984375
1696287066243,1.1540527,-0.8101196,-0.38702393,23.90625,15.90625,2.171875
1696287066272,0.62890625,-0.79278564,0.09539795,-16.28125,-27.0,-3.78125
1696287066318,-0.33666992,-1.0083618,-0.22174072,-3.65625,-16.578125,-8.875
1696287066362,0.39575195,-0.8423462,-0.019836426,1.40625,15.328125,-10.65625
1696287066390,0.57958984,-0.8179321,0.040222168,-0.671875,-5.609375,-5.15625
1696287066436,0.107421875,-0.7329712,-0.070617676,27.203125,-9.953125,-2.046875
1696287066466,0.16699219,-0.41363525,-0.05303955,28.84375,-5.40625,2.28125
1696287066511,0.21875,-0.30743408,-0.039855957,6.15625,-5.09375,13.71875
1696287066556,0.14794922,-0.565979,0.06414795,3.921875,-7.3125,14.109375
1696287066586,0.18334961,-0.84747314,0.015319824,2.390625,-37.65625,16.453125
1696287066634,0.35180664,-1.1482544,-0.07110596,-31.5625,-6.890625,23.109375
1696287066662,0.53393555,-1.9036255,0.2477417,-20.421875,-0.046875,0.578125
1696287066710,0.34521484,-1.3926392,0.074157715,4.734375,-16.296875,-18.46875
1696287066753,0.9523926,-1.1253052,-0.4968872,8.734375,-1.578125,20.703125
1696287066783,0.09741211,-1.2522583,0.29730225,-29.1875,55.484375,-15.09375
1696287066829,-0.009521484,-1.060852,-0.47369385,-9.5,-24.375,-36.984375
1696287066857,0.5625,-0.7605591,-0.06964111,-29.40625,70.015625,-4.671875
1696287066902,0.3347168,-1.1289673,0.005065918,-20.859375,-22.984375,-5.703125
1696287066947,-2.4414062E-4,-0.9795532,-0.097717285,4.046875,19.15625,-15.484375
1696287066977,0.07543945,-0.67852783,-0.08087158,1.421875,24.515625,-9.71875
1696287067022,0.16357422,-0.68170166,0.03729248,-13.171875,37.890625,-2.78125
1696287067069,0.080322266,-0.5064087,-0.031066895,2.03125,33.4375,1.15625
1696287067097,0.15844727,-0.23321533,-0.0020141602,3.15625,43.8125,7.640625
1696287067146,0.10888672,-0.5545044,0.050476074,-11.65625,21.234375,10.84375
1696287067172,0.18066406,-0.7715454,0.06341553,-11.328125,31.8125,4.609375
1696287067221,0.17553711,-1.291565,0.21087646,-48.640625,22.34375,22.8125
1696287067262,0.0043945312,-2.0,0.23797607,-41.078125,-0.625,9.546875
1696287067292,0.18945312,-1.3633423,-0.049865723,5.484375,6.28125,17.921875
1696287067339,0.24023438,-1.4104614,-0.10333252,-29.671875,-5.09375,12.765625
1696287067367,0.8342285,-0.97613525,0.059509277,1.5625,44.984375,-17.015625
1696287067414,0.18359375,-0.79815674,-0.21026611,1.40625,19.71875,-6.953125
1696287067459,0.328125,-0.975647,0.17303467,-34.296875,33.09375,-14.21875
1696287067488,0.38720703,-1.1890259,0.1461792,-32.203125,55.515625,-25.25
1696287067532,0.18945312,-1.0247192,0.005065918,-14.5,42.171875,-14.71875
1696287067562,0.22485352,-0.7473755,-0.004699707,-0.78125,52.5625,-18.921875
1696287067608,0.17578125,-0.5991821,0.016296387,-12.296875,53.0625,-9.984375
1696287067653,0.115722656,-0.5396118,-0.012756348,-12.375,56.21875,-9.296875
1696287067681,0.00390625,-0.5762329,0.012145996,-16.140625,55.390625,-10.9375
1696287067729,0.16699219,-0.68536377,0.09613037,-17.46875,60.59375,-5.953125
1696287067774,0.12719727,-0.7583618,0.12835693,-22.828125,53.671875,-2.984375
1696287067802,0.020996094,-0.803772,0.06072998,-13.59375,49.28125,-0.46875
1696287067850,0.13183594,-0.9356079,0.18475342,-25.40625,47.078125,-2.453125
1696287067876,0.08862305,-1.0820923,0.2687378,-30.921875,52.765625,-5.21875
1696287067924,0.0126953125,-1.0454712,0.27703857,-15.796875,54.265625,-27.71875
1696287067970,0.30419922,-1.2556763,-0.005432129,-38.734375,27.0,-8.265625
1696287067997,0.32226562,-1.5200806,-0.38702393,0.609375,79.578125,7.421875
1696287068044,0.028808594,-1.0081177,0.34222412,-11.015625,96.109375,-4.953125
1696287068072,-0.16699219,-0.74713135,-0.1453247,-25.703125,48.015625,-15.34375
1696287068118,0.04272461,-1.5667114,0.09588623,-28.59375,103.015625,-11.21875
1696287068163,0.12109375,-0.98516846,0.050231934,12.671875,71.203125,-12.953125
1696287068192,-0.056640625,-0.38189697,-0.23345947,-1.078125,86.5,-0.890625
1696287068238,0.2253418,-0.8335571,0.03314209,-18.90625,76.125,11.078125
1696287068284,0.11303711,-0.95562744,0.019470215,-9.75,55.640625,5.953125
1696287068312,0.19262695,-0.82647705,0.10443115,-10.984375,51.390625,6.828125
1696287068359,0.07861328,-0.9627075,0.14056396,-23.109375,27.546875,3.5
1696287068387,0.004638672,-1.2276001,0.24725342,-18.671875,29.234375,-3.0
1696287068436,0.19970703,-1.2979126,0.16986084,-6.921875,20.140625,-2.25
1696287068477,0.18017578,-1.5073853,0.2453003,-12.390625,7.8125,5.59375
1696287068507,0.03466797,-1.7630005,0.031433105,-12.3125,-7.3125,23.03125
1696287068553,0.63183594,-1.1690063,-0.16436768,39.0,23.859375,-21.53125
1696287068582,0.5358887,-0.7305298,9.1552734E-4,17.046875,29.5,8.125
1696287068630,0.42504883,-0.86187744,0.04510498,-10.765625,18.84375,1.390625
1696287068673,0.19799805,-1.1289673,0.07122803,-12.921875,21.5625,-13.296875
1696287068704,0.3713379,-0.7739868,-0.023498535,2.296875,20.65625,-10.125
1696287068749,0.29101562,-0.6370239,0.015563965,4.3125,17.125,-0.09375
1696287068778,0.17333984,-0.6021118,0.0028686523,5.96875,18.671875,0.484375
1696287068824,0.20117188,-0.49468994,0.057556152,1.15625,24.046875,8.484375
1696287068869,0.056396484,-0.5418091,0.031188965,7.78125,19.53125,8.3125
1696287068897,0.15209961,-0.84454346,-0.02935791,-6.59375,5.546875,13.5
1696287068943,0.38232422,-1.196106,0.0993042,-11.21875,13.328125,7.484375
1696287068988,0.37670898,-1.6255493,0.34368896,-23.109375,19.40625,-10.40625
1696287069018,0.25561523,-1.500061,0.117370605,-19.40625,-2.296875,-22.328125
1696287069062,0.7722168,-1.0852661,-0.206604,6.421875,-14.515625,-0.703125
1696287069092,0.23657227,-0.91778564,0.031921387,-15.1875,23.125,-16.046875
1696287069140,-0.2565918,-1.0227661,-0.50665283,4.15625,7.671875,-37.4375
1696287069184,0.3395996,-0.98883057,-0.094055176,-21.546875,67.734375,-6.53125
1696287069212,0.37841797,-1.1709595,0.038757324,-22.78125,-9.5,5.375
1696287069259,0.063964844,-1.1143188,0.035095215,2.34375,29.5625,-3.0
1696287069287,0.080566406,-0.71466064,-0.06695557,13.265625,22.4375,1.3125
1696287069334,0.13696289,-0.45147705,-0.12579346,14.203125,20.25,7.828125
1696287069379,0.078125,-0.32891846,0.020446777,18.203125,28.328125,11.625
1696287069407,-0.011962891,-0.35113525,-0.09234619,13.359375,15.109375,17.140625
1696287069454,0.19580078,-0.58258057,-0.10772705,2.96875,16.921875,19.4375
1696287069483,0.23950195,-1.0064087,0.046569824,-18.796875,11.015625,26.125
1696287069529,-0.02368164,-1.8858032,0.23919678,-46.59375,15.4375,16.234375
1696287069574,0.36889648,-1.9016724,0.19134521,-6.734375,9.8125,3.703125
1696287069602,0.36572266,-1.0740356,-0.23443604,-3.859375,-12.375,12.390625
1696287069649,0.3696289,-1.1914673,-0.24420166,-25.59375,-2.3125,-7.015625
1696287069694,0.9206543,-1.1494751,0.17889404,5.28125,2.96875,-1.328125
1696287069723,0.33325195,-0.7666626,-0.07159424,8.21875,-16.140625,-1.1875
1696287069768,0.3071289,-0.7493286,0.09320068,-12.328125,-3.59375,1.140625
1696287069797,0.3503418,-1.0046997,0.14349365,-8.828125,-14.15625,-2.234375
1696287069844,0.17285156,-0.87091064,0.02923584,19.125,-12.859375,-5.984375
1696287069887,0.14013672,-0.5366821,-0.040100098,34.25,-9.234375,-10.34375
1696287069917,0.30419922,-0.30743408,-0.0134887695,22.859375,-3.328125,3.8125
1696287069965,0.22192383,-0.46417236,0.06512451,7.625,-9.125,13.578125
1696287069992,0.09863281,-0.78302,0.042663574,7.734375,-17.78125,6.421875
1696287070038,0.28710938,-1.0879517,0.101989746,5.265625,-23.5,5.578125
1696287070083,0.46704102,-1.3887329,0.18572998,-3.78125,-12.109375,6.890625
1696287070112,0.42456055,-1.4810181,0.24334717,-0.234375,-20.859375,-9.59375
1696287070158,0.38793945,-1.0269165,-0.059143066,11.875,-22.921875,-11.40625
1696287070188,0.6813965,-1.2532349,-0.07745361,-18.953125,14.96875,8.890625
1696287070235,-0.13110352,-1.1165161,-0.33258057,-19.96875,5.171875,-29.46875
1696287070277,0.47802734,-0.8960571,-0.16412354,-40.671875,47.84375,-6.40625
1696287070306,0.49267578,-1.1184692,-0.03375244,-29.40625,-2.734375,-3.078125
1696287070353,0.140625,-0.8916626,-0.022277832,0.4375,6.75,-1.4375
1696287070398,0.3137207,-0.72442627,0.046569824,7.359375,2.734375,6.328125
1696287070428,0.23510742,-0.65045166,0.055603027,21.75,2.9375,11.203125
1696287070473,0.09887695,-0.43170166,-0.07232666,16.0625,2.875,9.25
1696287070502,0.1418457,-0.3977661,-0.0115356445,17.03125,-3.484375,13.296875
1696287070548,0.14794922,-0.6392212,-0.046691895,5.5,5.328125,13.03125
1696287070594,0.12475586,-1.0479126,-0.02520752,-11.5,8.125,15.625
1696287070622,0.18457031,-1.357727,0.31707764,-16.984375,12.984375,7.203125
1696287070669,0.45776367,-1.593811,0.31341553,-27.375,8.84375,3.03125
1696287070698,0.34594727,-1.3213501,0.10223389,-13.328125,-3.140625,-3.3125
1696287070743,0.3408203,-1.2212524,-0.14141846,-14.40625,-14.8125,3.734375
1696287070789,0.7060547,-1.2249146,-0.07867432,-2.1875,-9.03125,-6.78125
1696287070817,0.5583496,-0.9216919,0.029968262,2.15625,-9.875,-6.671875
1696287070864,0.44580078,-0.7749634,-0.031799316,5.25,-8.734375,-2.875
1696287070909,0.46118164,-0.940979,0.17181396,-3.09375,-7.59375,-2.984375
1696287070937,0.30004883,-0.97442627,0.18231201,5.375,0.546875,-6.109375
1696287070984,0.20288086,-0.75567627,0.0446167,17.625,-14.203125,-8.0625
1696287071013,0.18408203,-0.45977783,-0.0022583008,34.5,-4.90625,-12.25
1696287071059,0.25146484,-0.30914307,-5.493164E-4,19.3125,-12.125,2.640625
1696287071103,0.22607422,-0.45098877,0.085632324,4.5625,-7.890625,12.15625
1696287071132,0.05859375,-0.7559204,0.0446167,-7.0625,-17.71875,12.21875
1696287071179,0.22363281,-1.034729,0.12542725,-6.015625,-14.0,4.46875
1696287071255,0.5324707,-1.4107056,0.1864624,-13.890625,-2.578125,1.859375
1696287071260,0.41479492,-1.4690552,0.418396,-4.671875,-11.03125,-6.25
1696287071297,0.2915039,-1.0054321,0.005554199,4.875,-16.34375,-2.5625
1696287071329,0.90356445,-1.2249146,-0.16046143,-22.8125,28.375,24.03125
1696287071373,-0.024414062,-1.0794067,-0.062316895,-9.921875,2.109375,-20.84375
1696287071402,0.2043457,-1.0322876,-0.331604,-5.125,42.421875,-9.234375
1696287071448,0.4567871,-1.0474243,0.005065918,-15.640625,56.265625,-3.890625
1696287071493,0.33935547,-1.1157837,-0.0056762695,-12.125,11.578125,2.15625
1696287071522,0.12548828,-0.9717407,0.089782715,3.296875,20.421875,-6.5625
1696287071569,0.08154297,-0.74664307,-0.010803223,10.703125,27.578125,-1.0625
1696287071613,0.20996094,-0.43389893,-0.0095825195,20.015625,40.90625,-1.421875
1696287071642,0.068115234,-0.34918213,0.005065918,8.75,34.28125,13.875
1696287071689,-0.009277344,-0.43658447,-0.10406494,1.375,29.09375,5.0
1696287071717,0.23803711,-0.7112427,-0.07159424,-7.609375,22.578125,14.609375
1696287071765,0.2475586,-0.9846802,-0.07281494,-15.90625,25.203125,19.796875
1696287071807,0.14257812,-1.3875122,0.10614014,-14.4375,29.859375,7.9375
1696287071837,0.13110352,-1.6223755,0.23358154,-38.515625,27.109375,4.578125
1696287071884,0.23486328,-1.6904907,0.17352295,-34.171875,13.390625,6.6875
1696287071913,0.29614258,-1.3215942,-0.2666626,-9.625,-16.0,23.75
1696287071959,0.62060547,-1.1553345,-0.23199463,-13.828125,18.421875,0.015625
1696287072002,0.50756836,-1.0894165,-0.17633057,11.09375,10.546875,-20.828125
1696287072032,0.34155273,-0.6453247,-0.05645752,-8.5,14.625,-2.578125
1696287072080,0.38476562,-0.67559814,-0.07183838,-33.65625,33.421875,-16.625
1696287072108,0.16259766,-1.0305786,0.12567139,-43.90625,22.8125,-14.25
1696287072154,0.19116211,-0.8887329,0.002380371,-16.484375,41.484375,-21.9375
1696287072199,0.39233398,-0.7012329,-0.049865723,-17.96875,29.65625,-10.515625
1696287072227,0.25952148,-0.6843872,0.12835693,-15.859375,37.109375,-4.9375
1696287072274,0.083740234,-0.7024536,0.058532715,-13.15625,38.671875,-2.359375
1696287072350,-0.0063476562,-0.7190552,0.14056396,-19.046875,34.015625,-11.828125
1696287072355,0.064453125,-0.71295166,0.18377686,-17.078125,46.34375,-8.890625
1696287072393,0.048339844,-0.7295532,0.121032715,-13.953125,42.6875,-11.1875
1696287072421,0.17114258,-0.7437134,0.15130615,-13.984375,45.359375,-9.328125
1696287072469,0.13452148,-0.8604126,0.3151245,-31.859375,39.8125,-4.828125
1696287072514,-0.13623047,-0.989563,0.27630615,-35.203125,42.90625,-22.015625
1696287072542,0.28393555,-1.3643188,-0.15802002,-51.140625,29.625,-1.796875
1696287072589,0.9206543,-1.7564087,-0.61187744,-5.859375,84.84375,21.296875
1696287072617,-0.17822266,-0.96954346,0.8317261,2.171875,67.265625,-16.296875
1696287072665,-0.49365234,-0.82281494,-0.30670166,4.671875,47.28125,-29.671875
1696287072708,0.21948242,-1.6138306,0.1383667,-40.90625,97.5,-17.96875
1696287072737,0.29296875,-0.98931885,0.24920654,17.359375,66.75,-19.796875
1696287072785,-0.10571289,-0.48394775,-0.17510986,4.0625,62.0625,-5.984375
1696287072812,0.09765625,-0.84625244,0.015808105,-17.109375,69.125,7.203125
1696287072859,-0.0075683594,-0.8699341,0.0524292,-8.15625,51.484375,2.546875
1696287072903,0.023925781,-0.8711548,0.058044434,-1.78125,56.75,3.078125
1696287072932,-0.0056152344,-0.89019775,0.08709717,-13.890625,35.359375,5.125
1696287072979,-0.020263672,-0.87677,0.058044434,-8.96875,41.296875,0.828125
1696287073023,0.16894531,-1.0269165,0.17596436,-12.234375,36.796875,7.71875
1696287073051,0.013671875,-1.2503052,0.29901123,9.359375,29.84375,14.1875
1696287073096,-0.13256836,-1.4624634,0.23309326,-20.84375,20.203125,5.875
1696287073126,0.22143555,-1.6121216,-0.07159424,-8.46875,1.4375,23.96875
1696287073173,0.6452637,-1.5923462,-0.012268066,1.953125,12.859375,7.5625
1696287073219,0.55859375,-0.94903564,-0.15386963,27.65625,34.96875,5.796875
1696287073249,0.6594238,-0.72613525,-0.047180176,2.46875,11.78125,-2.21875
1696287073292,0.41601562,-0.9656372,0.028015137,-21.8125,12.609375,-7.921875
1696287073321,0.25463867,-1.0025024,0.026550293,-14.5,29.46875,-11.9375
1696287073369,0.40185547,-0.7661743,-0.065979004,-5.46875,23.40625,-2.234375
1696287073412,0.41381836,-0.6404419,0.09906006,-1.09375,23.609375,-1.890625
1696287073441,0.17138672,-0.61798096,0.074645996,5.84375,16.5,-1.453125
1696287073487,0.12817383,-0.5906372,0.024841309,8.015625,28.5625,4.671875
1696287073532,0.0949707,-0.6477661,0.039001465,-4.96875,26.4375,3.140625
1696287073561,0.19067383,-0.81988525,-0.034240723,-6.0625,23.921875,7.421875
1696287073607,0.4597168,-1.1101685,0.086364746,-14.5,12.671875,10.75
1696287073637,0.4794922,-1.4707642,0.369812,-15.1875,28.78125,-1.125
1696287073684,0.14233398,-1.2564087,0.16156006,-14.15625,15.453125,-24.484375
1696287073727,0.54052734,-1.1089478,-0.066711426,-25.140625,1.234375,-1.84375
1696287073758,0.8405762,-1.1773071,-0.19732666,-27.890625,49.15625,4.890625
1696287073805,-0.07421875,-1.1106567,-0.20855713,-30.421875,16.59375,-25.125
1696287073833,0.1262207,-0.9585571,-0.29327393,-3.71875,38.125,-22.328125
1696287073878,0.5656738,-0.93292236,0.07611084,-2.234375,34.359375,-2.09375
1696287073923,0.2487793,-0.9204712,-0.008117676,0.421875,20.0,1.375
1696287073953,0.08666992,-0.71539307,0.010925293,29.046875,24.34375,6.015625
1696287073998,0.019042969,-0.29888916,-0.04107666,31.59375,32.921875,9.109375
1696287074027,0.10205078,-0.333313,-0.09942627,19.75,26.625,13.3125
1696287074074,0.096191406,-0.5454712,-0.037902832,17.265625,19.609375,16.625
1696287074118,0.10107422,-0.78912354,-0.12359619,0.140625,15.984375,16.96875
1696287074147,0.34521484,-1.2820435,-0.08306885,-19.9375,18.515625,13.703125
1696287074194,0.32788086,-1.8943481,0.13226318,-29.71875,14.71875,3.40625
1696287074238,0.20605469,-1.4448853,-0.00982666,-8.40625,11.5625,-0.453125
1696287074267,0.35131836,-1.222229,-0.2883911,-27.9375,-3.609375,7.96875
1696287074314,0.8112793,-1.2537231,-0.12921143,-8.625,3.59375,-11.765625
1696287074342,0.5168457,-0.87750244,-0.21051025,9.625,-6.171875,-4.96875
1696287074389,0.5168457,-0.59381104,-0.08770752,-0.265625,-1.25,-4.90625
1696287074433,0.3317871,-0.96539307,0.061706543,-15.484375,-8.328125,-1.90625
1696287074461,0.12939453,-1.0064087,0.07293701,-1.09375,-1.484375,-7.703125
1696287074509,0.20751953,-0.7654419,-0.012268066,9.390625,-10.234375,-16.140625
1696287074537,0.26220703,-0.50860596,0.0018920898,16.15625,-6.140625,-18.015625
1696287074584,0.22998047,-0.47198486,0.053894043,-0.53125,-8.90625,-8.96875
1696287074627,0.1184082,-0.5281372,0.11444092,-0.484375,-13.1875,-10.6875
1696287074658,0.017578125,-0.5239868,-0.07110596,5.953125,-17.390625,-3.671875
1696287074704,0.12915039,-0.70684814,-0.0803833,7.796875,-16.859375,0.359375
1696287074732,0.4309082,-1.3535767,0.11566162,-32.125,5.328125,10.75
1696287074778,0.4025879,-2.0,0.6317749,-41.859375,-1.734375,-3.6875
1696287074823,0.119628906,-1.2627563,0.109802246,2.484375,-4.328125,-13.875
1696287074852,0.5280762,-0.83795166,-0.054016113,5.5625,-8.171875,5.1875
1696287074900,0.34521484,-1.1455688,-0.010559082,-14.8125,23.171875,-16.515625
1696287074942,0.021728516,-1.003479,-0.4187622,-6.6875,9.5,-7.0
1696287074973,0.38134766,-1.022522,-0.042053223,-4.734375,6.796875,0.46875
1696287075019,0.16918945,-1.1624146,0.002380371,9.5,-2.0,8.953125
1696287075046,0.0390625,-0.9985962,-0.015197754,11.484375,2.21875,7.03125
1696287075094,0.13208008,-0.7490845,-0.109680176,10.53125,-7.78125,9.1875
1696287075136,0.19384766,-0.50665283,-0.077941895,19.71875,-5.171875,17.640625
1696287075167,0.06567383,-0.42193604,-0.07110596,-9.78125,-10.875,16.875
1696287075212,0.0041503906,-0.47125244,0.11981201,-5.25,3.921875,6.3125
1696287075241,0.05102539,-0.68927,0.0368042,-23.640625,1.46875,7.359375
1696287075288,0.14453125,-1.0942993,0.17547607,-26.765625,-2.9375,8.265625
1696287075332,0.19458008,-1.7925415,0.43182373,-30.28125,7.40625,-5.546875
1696287075361,0.1652832,-1.7942505,0.32000732,-5.84375,-2.71875,-5.53125
1696287075407,0.4013672,-1.2197876,-0.081604004,-8.625,-7.171875,0.84375
1696287075451,0.532959,-1.4172974,-0.030334473,-3.21875,-3.46875,-10.328125
1696287075481,0.7937012,-0.9038696,0.02532959,12.765625,6.71875,-14.046875
1696287075526,0.40283203,-0.6397095,0.07513428,-6.0,-11.890625,-3.75
1696287075556,0.24536133,-0.94244385,0.16912842,-14.5625,-10.28125,-8.1875
1696287075602,0.1928711,-0.9558716,0.12860107,-5.5,-10.921875,-4.65625
1696287075646,0.30786133,-0.7686157,0.17474365,3.484375,-5.65625,-6.015625
1696287075676,0.08276367,-0.6724243,0.06976318,21.65625,-7.140625,-8.515625
1696287075722,0.056152344,-0.4109497,0.018005371,23.890625,0.890625,-0.484375
1696287075751,0.14379883,-0.28033447,0.023132324,14.015625,6.015625,8.40625
1696287075797,0.11279297,-0.40216064,0.18426514,-6.484375,0.28125,14.171875
1696287075843,0.16601562,-0.5342407,-0.042541504,-19.6875,-32.921875,17.53125
1696287075871,0.44799805,-1.1069946,0.6576538,-31.28125,-24.171875,8.609375
1696287075920,0.09887695,-2.0,0.5050659,-26.375,-0.53125,2.0625
1696287075947,0.08276367,-1.4961548,0.42816162,36.640625,5.1875,-19.390625
1696287075995,0.5654297,-1.0032349,0.04827881,12.109375,-14.65625,3.96875
1696287076037,0.40966797,-1.3447876,0.44940186,-23.953125,58.421875,16.671875
1696287076067,-0.4423828,-1.1375122,-0.24786377,25.609375,-17.390625,-25.671875
1696287076114,0.56933594,-0.60479736,-0.17755127,-0.546875,72.6875,-8.625
1696287076159,0.4560547,-1.145813,0.10028076,-33.109375,3.828125,11.21875
1696287076188,0.05810547,-1.1448364,0.07684326,-11.21875,39.09375,-1.921875
1696287076234,0.083984375,-0.68463135,0.0524292,6.53125,12.90625,-6.75
1696287076263,0.107421875,-0.59381104,-0.055725098,18.0625,23.65625,7.46875
1696287076310,0.2043457,-0.4805298,0.030212402,9.359375,22.625,7.390625
1696287076351,0.084228516,-0.41656494,0.028015137,0.734375,20.796875,12.484375
1696287076382,0.056884766,-0.5713501,0.012145996,-8.375,22.1875,9.15625
1696287076429,0.1899414,-0.8093872,0.13275146,-20.71875,37.359375,11.453125
1696287076457,0.22363281,-1.3433228,0.30145264,-7.796875,43.828125,4.5625
1696287076504,0.037353516,-2.0,0.4159546,-29.4375,13.953125,-1.28125
1696287076547,0.13378906,-1.4107056,0.17913818,12.640625,33.828125,6.25
1696287076578,0.115478516,-1.1653442,-0.31866455,-21.265625,8.546875,12.765625
1696287076621,0.6269531,-1.3042603,-0.17095947,-0.390625,15.46875,-5.46875
1696287076652,0.7067871,-0.9011841,0.02166748,8.515625,22.125,-20.71875
1696287076698,0.25390625,-0.6602173,-0.14337158,-5.09375,22.640625,-1.453125
1696287076744,0.2849121,-0.8838501,0.039245605,-32.640625,16.53125,-20.90625
1696287076773,0.3251953,-1.0581665,0.21209717,-28.375,25.671875,-12.25
1696287076817,0.13134766,-0.8557739,0.04949951,-7.265625,22.71875,-15.8125
1696287076866,0.18066406,-0.6577759,-0.0037231445,-7.015625,30.78125,-13.359375
1696287076892,0.20288086,-0.6375122,0.117126465,-6.953125,42.0,-2.09375
1696287076938,0.0949707,-0.7805786,-0.006164551,-13.203125,33.546875,2.390625
1696287076967,0.088134766,-0.75372314,0.10101318,-9.59375,34.09375,-11.015625
1696287077016,0.16186523,-0.7888794,0.14520264,-12.984375,33.65625,-8.90625
1696287077057,0.20092773,-0.90753174,0.1864624,-11.328125,31.71875,1.375
1696287077087,0.12426758,-0.8850708,0.11810303,-0.609375,31.1875,-2.671875
1696287077134,0.07470703,-0.90826416,0.19891357,-5.625,28.421875,-3.109375
1696287077162,-0.011230469,-1.0337524,0.24334717,-24.140625,33.015625,-10.1875
1696287077209,-0.09448242,-1.0213013,0.2140503,-28.96875,47.515625,-30.828125
1696287077252,0.115234375,-1.1575317,-0.06451416,-29.71875,30.75,-11.96875
1696287077282,0.6513672,-1.2329712,-0.14996338,-29.390625,52.359375,7.453125
1696287077328,-0.28735352,-1.1936646,0.418396,-10.546875,80.96875,-25.609375
1696287077357,-0.19946289,-0.84039307,-0.3345337,10.6875,65.4375,-6.6875
1696287077404,0.6166992,-1.0247192,-0.08673096,-13.75,78.75,5.34375
1696287077448,0.03100586,-1.1519165,0.1876831,-25.609375,51.015625,-1.828125
1696287077476,-0.3552246,-0.9417114,-0.019348145,6.328125,75.90625,-6.609375
1696287077523,0.23828125,-0.8335571,-0.028381348,0.578125,67.03125,0.140625
1696287077568,0.22802734,-0.9067993,0.07928467,-5.0625,55.796875,9.453125
1696287077597,-0.02709961,-0.90948486,0.070495605,0.703125,41.3125,1.984375
1696287077643,0.06591797,-0.88360596,0.15545654,-3.890625,33.6875,2.78125
1696287077671,0.08154297,-0.8953247,0.09954834,-14.609375,18.703125,4.671875
1696287077719,0.0847168,-0.8804321,0.08856201,-12.625,21.65625,2.828125
1696287077764,-0.08276367,-0.99346924,0.19256592,-11.65625,20.78125,3.21875
1696287077793,-0.10253906,-1.0515747,0.18548584,-0.265625,34.953125,4.015625
1696287077839,0.045898438,-1.1226196,0.22576904,-1.03125,29.671875,9.3125
1696287077867,0.056640625,-1.4067993,0.18963623,-13.046875,23.046875,10.296875
1696287077914,0.1340332,-1.7158813,-0.101867676,-7.328125,-1.0625,29.09375
1696287077958,0.7409668,-1.5791626,-0.18341064,24.359375,38.546875,5.625
1696287077987,0.7380371,-0.8550415,-0.14312744,39.234375,49.625,9.40625
1696287078034,0.43945312,-0.7805786,0.015319824,1.078125,18.796875,7.859375
1696287078062,0.3046875,-1.123352,-0.008850098,-11.484375,33.15625,-2.53125
1696287078109,0.4333496,-0.9192505,-0.10821533,-1.65625,39.28125,-5.171875
1696287078153,0.52124023,-0.64019775,-0.043762207,5.90625,26.171875,4.28125
1696287078182,0.28710938,-0.7119751,0.055847168,-0.375,22.75,5.40625
1696287078230,0.016601562,-0.63531494,-0.02935791,0.25,20.0,-3.609375
1696287078272,0.12158203,-0.42877197,-0.08282471,-4.125,23.5625,-1.71875
1696287078302,0.22802734,-0.5791626,-0.07525635,-22.890625,6.921875,7.375
1696287078349,0.30688477,-0.93707275,-0.03668213,-16.359375,18.03125,-3.265625
1696287078378,0.4831543,-1.3394165,0.13616943,-21.5625,12.21875,8.96875
1696287078424,0.5019531,-1.4168091,0.3439331,-20.671875,16.6875,-15.390625
1696287078467,0.14892578,-1.0947876,0.026550293,-23.140625,19.28125,-14.984375
1696287078497,0.5344238,-1.1304321,-0.13189697,-29.140625,-0.65625,7.453125
1696287078544,0.9477539,-1.2561646,-0.3106079,-10.25,47.203125,8.671875
1696287078571,-0.21118164,-0.8015747,-0.24517822,-13.0,7.421875,-20.859375
1696287078620,0.064208984,-0.9404907,-0.39337158,-6.15625,33.375,-4.796875
1696287078663,0.5090332,-1.0908813,0.027526855,-12.453125,18.640625,0.984375
1696287078692,0.2163086,-0.9480591,9.1552734E-4,4.03125,26.34375,-0.375
1696287078739,0.056640625,-0.73443604,-0.12750244,4.375,17.40625,4.25
1696287078767,0.11767578,-0.5244751,-0.06549072,11.234375,27.609375,4.921875
1696287078813,0.107910156,-0.41070557,-0.078186035,11.671875,26.28125,11.21875
1696287078860,0.083496094,-0.51763916,-0.062561035,0.65625,25.40625,13.953125
1696287078887,0.18920898,-0.5462036,-0.028625488,5.71875,19.09375,18.65625
1696287078934,0.20288086,-0.89068604,-0.10797119,-15.5,5.359375,31.515625
1696287078978,0.36157227,-1.4075317,0.0119018555,-33.359375,0.515625,31.78125
1696287079007,0.26831055,-1.8328247,0.3131714,-13.734375,7.375,-9.359375
1696287079054,0.38452148,-1.5288696,-0.046447754,-8.4375,0.9375,4.703125
1696287079084,0.46142578,-1.3032837,-0.22564697,-10.328125,-0.28125,-6.34375
1696287079129,0.74780273,-1.218811,0.00579834,-2.796875,-0.21875,-21.890625
1696287079174,0.6936035,-0.8850708,-0.1272583,15.59375,-2.1875,-6.953125
1696287079201,0.48339844,-0.6296997,0.04071045,2.421875,-4.703125,-6.96875
1696287079249,0.38964844,-0.88287354,0.0914917,-8.609375,-9.3125,-11.75
1696287079277,0.38745117,-0.9883423,0.09637451,6.890625,-16.640625,-6.125
1696287079324,0.33154297,-0.67755127,-0.0017700195,5.0625,-17.875,-11.5625
1696287079366,0.20166016,-0.4590454,0.07318115,3.078125,-6.21875,-6.234375
1696287079397,0.052734375,-0.39190674,0.06951904,17.53125,9.859375,0.4375
1696287079444,0.15527344,-0.30596924,-0.05230713,8.90625,5.828125,5.0
1696287079486,0.27563477,-0.3731079,0.039733887,-0.0625,-3.546875,4.421875
1696287079517,0.17626953,-0.7156372,-0.08331299,-5.546875,-18.78125,12.53125
1696287079563,0.43676758,-1.4158325,0.20355225,-42.28125,4.703125,10.375
1696287079593,0.4345703,-2.0,0.35614014,-11.0625,3.625,-18.703125
1696287079638,0.42138672,-1.5178833,0.16375732,45.328125,-4.28125,-25.640625
1696287079699,1.0100098,-1.0664673,0.01727295,7.484375,14.765625,20.90625
1696287079712,0.09863281,-0.98321533,-0.055480957,-13.25,11.609375,-19.984375
1696287079759,-0.1015625,-0.76690674,-0.4331665,-26.546875,9.859375,-21.453125
1696287079787,0.68896484,-0.87872314,-0.058166504,-18.21875,18.140625,-13.71875
1696287079834,0.26220703,-1.1897583,-0.01373291,-7.5625,19.46875,-5.390625
1696287079878,-0.05419922,-0.7593384,-0.0491333,13.0,14.921875,-2.75
1696287079907,0.24829102,-0.42926025,-0.074523926,15.359375,14.515625,5.09375
1696287079954,0.15454102,-0.40679932,-0.070129395,16.015625,7.734375,12.25
1696287079983,0.12841797,-0.36968994,-0.040100098,10.421875,-16.015625,18.8125
1696287080029,0.10961914,-0.37677002,-0.07720947,-8.625,-25.75,23.8125
1696287080074,0.16430664,-0.68756104,0.001159668,-12.5625,-3.53125,15.625
1696287080102,0.1640625,-1.1846313,0.07366943,-39.875,-7.046875,19.71875
1696287080149,0.30908203,-2.0,0.45941162,-46.15625,-10.171875,-4.4375
1696287080192,0.4580078,-2.0,0.39837646,1.90625,-2.375,-2.609375
1696287080222,0.3203125,-1.4487915,-0.13897705,-2.984375,-6.59375,10.21875
1696287080269,0.81518555,-1.1687622,-0.13214111,14.359375,10.84375,-13.390625
1696287080296,0.8730469,-0.8760376,0.008972168,10.328125,-4.453125,-8.453125
1696287080343,0.20751953,-0.71881104,-0.050598145,1.890625,-8.6875,-5.28125
1696287080387,0.48583984,-0.6980591,-0.0256958,-12.40625,-10.796875,-7.734375
1696287080418,0.49072266,-0.9512329,0.15301514,-11.734375,-25.578125,-4.109375
1696287080463,0.24169922,-0.7554321,0.086364746,11.140625,-19.796875,-5.8125
1696287080492,0.15185547,-0.48614502,0.0072631836,26.9375,-16.65625,-7.921875
1696287080539,0.17211914,-0.28936768,0.018981934,23.53125,-1.578125,-0.484375
1696287080582,0.13769531,-0.2859497,0.043395996,10.453125,-6.125,9.796875
1696287080614,0.010498047,-0.36627197,0.06707764,7.765625,1.359375,9.71875
1696287080658,0.16967773,-0.45977783,-0.022766113,-2.140625,-20.671875,8.875
1696287080687,0.42211914,-0.973938,0.40447998,-44.03125,25.3125,11.40625
1696287080734,0.58935547,-1.9971313,0.30389404,-65.890625,-11.28125,13.046875
1696287080779,0.43359375,-1.8811646,0.6679077,24.734375,-15.609375,-17.4375
1696287080807,0.6032715,-1.1118774,-0.10235596,17.90625,-16.84375,-2.953125
1696287080853,0.685791,-1.208313,0.3180542,-21.40625,20.59375,18.65625
1696287080899,-0.5275879,-0.9602661,-0.18463135,1.671875,-6.09375,-45.0625
1696287080926,0.40649414,-0.6133423,-0.54278564,-9.6875,36.28125,-16.6875
1696287080975,0.7692871,-1.0977173,0.30413818,-30.203125,-7.078125,-10.6875
1696287081002,0.020996094,-1.255188,0.02166748,-7.9375,17.640625,-0.6875
1696287081048,-0.057128906,-0.7383423,0.038757324,12.5625,19.09375,-11.140625
1696287081092,0.17138672,-0.425354,-0.09112549,25.546875,38.578125,2.25
1696287081123,0.22045898,-0.42755127,-0.031311035,20.609375,37.71875,14.40625
1696287081165,0.23071289,-0.46661377,-0.005432129,16.3125,25.140625,23.203125
1696287081195,0.17871094,-0.6223755,-0.008117676,-4.3125,10.078125,21.359375
1696287081242,0.011474609,-0.96099854,-0.005432129,-5.28125,22.359375,12.328125
1696287081289,0.0859375,-1.5952759,0.028015137,-35.421875,41.21875,15.765625
1696287081317,0.41918945,-1.7984009,0.3361206,-8.09375,33.421875,26.90625
1696287081365,0.17871094,-1.265686,-0.054992676,-20.625,15.859375,10.296875
1696287081392,0.39892578,-1.4243774,-0.14385986,-26.53125,23.96875,4.171875
1696287081437,0.70458984,-1.0403442,-0.17730713,-6.328125,13.8125,-17.25
1696287081483,0.3774414,-0.70635986,-0.28570557,-4.34375,15.40625,-5.8125
1696287081513,0.4013672,-0.73516846,-0.0032348633,-36.859375,25.546875,-12.0
1696287081559,0.29760742,-0.9221802,0.051452637,-35.75,32.53125,-18.359375
1696287081603,0.20605469,-0.9168091,0.004333496,-29.65625,38.21875,-11.640625
1696287081632,0.2902832,-0.8101196,-0.0025024414,-17.484375,42.421875,-14.84375
1696287081679,0.28100586,-0.7295532,0.03656006,-14.359375,39.34375,-9.84375
1696287081707,0.23950195,-0.7090454,0.06951904,-12.828125,47.234375,-5.859375
1696287081754,0.087646484,-0.77301025,0.042907715,-2.515625,51.203125,-8.984375
1696287081798,0.06689453,-0.755188,0.08294678,-12.328125,49.640625,-12.890625
1696287081827,0.16772461,-0.8040161,0.1005249,-7.71875,52.75,-12.984375
1696287081873,0.18139648,-0.9055786,0.14471436,-16.46875,56.15625,-0.796875
1696287081903,0.19726562,-0.93341064,0.105651855,-18.953125,45.21875,-7.015625
1696287081949,0.19018555,-0.9495239,0.17791748,-20.859375,36.921875,-9.109375
1696287081991,-0.038330078,-0.99713135,0.23114014,-30.578125,41.5,-14.6875
1696287082022,-0.05493164,-0.9529419,0.22528076,-24.953125,47.390625,-25.9375
1696287082068,0.17626953,-0.88775635,0.047546387,-29.53125,38.328125,-15.5
1696287082112,0.26879883,-1.178772,-0.32720947,-20.578125,29.578125,-8.0
1696287082142,0.41992188,-1.380188,0.05609131,-47.78125,87.984375,2.734375
1696287082187,-0.1159668,-0.9133911,0.097351074,3.125,4.59375,-3.96875
1696287082217,0.11206055,-0.87042236,-0.2588501,-18.859375,84.640625,-11.375
1696287082264,0.24511719,-1.2976685,0.42767334,-6.984375,48.21875,-9.0625
1696287082309,-0.16259766,-1.0115356,0.041931152,6.671875,59.546875,-9.046875
1696287082338,-0.056396484,-0.7703247,0.034362793,-8.578125,47.015625,-5.4375
1696287082385,0.34448242,-0.9331665,0.09466553,-12.9375,37.078125,8.515625
1696287082412,0.14819336,-0.89263916,0.12420654,-2.203125,26.59375,-4.453125
1696287082458,-0.057861328,-0.89068604,0.14276123,-0.125,36.671875,-1.875
1696287082504,-0.05053711,-0.8442993,0.07659912,-7.03125,34.984375,1.734375
1696287082532,0.010498047,-0.95269775,0.14227295,-8.40625,36.921875,-1.390625
1696287082579,-0.0014648438,-1.0213013,0.2296753,-4.5625,47.625,2.140625
1696287082607,0.007080078,-1.0110474,0.13763428,-8.0,48.28125,-0.234375
1696287082653,0.0769043,-1.1653442,0.26434326,2.03125,41.65625,4.046875
1696287082698,0.16918945,-1.4741821,0.038024902,-4.734375,27.09375,16.984375
1696287082727,0.28149414,-1.6194458,-0.09039307,1.984375,6.234375,34.515625
1696287082772,0.57666016,-1.5220337,0.137146,-0.828125,40.71875,-1.53125
1696287082851,0.079589844,-0.9829712,-0.23223877,34.03125,48.125,-0.390625
1696287082853,0.80908203,-0.46246338,-0.31402588,6.84375,33.734375,6.109375
1696287082892,0.5085449,-0.85894775,0.0053100586,-22.328125,21.015625,4.46875
1696287082922,0.27783203,-0.9595337,0.049987793,-8.625,29.484375,3.65625
1696287082969,0.33666992,-0.65338135,-0.05328369,8.890625,14.328125,-0.34375
1696287083014,0.25439453,-0.6572876,0.0016479492,-2.03125,12.890625,7.359375
1696287083042,0.07104492,-0.6860962,0.02508545,-0.484375,19.8125,-0.484375
1696287083088,0.18603516,-0.6292114,0.0038452148,0.0625,23.890625,1.0625
1696287083117,0.24511719,-0.6638794,0.03656006,-0.765625,21.328125,7.65625
1696287083166,0.23803711,-0.8796997,0.09173584,-7.890625,17.140625,8.34375
1696287083208,0.3178711,-1.1714478,0.17352295,-23.0,6.78125,13.859375
1696287083241,0.5461426,-1.4998169,0.30340576,-54.921875,-5.953125,2.984375
1696287083283,0.6311035,-1.560852,0.41033936,-7.875,-10.75,-28.953125
1696287083311,0.45410156,-1.1248169,-0.12799072,11.671875,-22.609375,-10.8125
1696287083359,0.7128906,-1.2166138,-0.33624268,-8.296875,33.3125,-7.5
1696287083402,-0.11035156,-0.7251587,-0.06964111,-0.15625,7.796875,-41.140625
1696287083431,0.084228516,-0.90582275,-0.7583618,9.453125,28.578125,-22.328125
1696287083479,0.49902344,-1.1292114,-0.11627197,-21.09375,71.46875,-5.703125
1696287083554,0.068359375,-0.98809814,0.07879639,1.40625,3.828125,4.046875
1696287083557,0.1003418,-0.8154907,-0.23565674,4.21875,17.6875,0.875
1696287083597,0.12768555,-0.7341919,0.17034912,14.265625,34.828125,7.4375
1696287083628,0.14868164,-0.48980713,-0.16070557,15.390625,20.3125,11.59375
1696287083674,0.12231445,-0.40216064,-0.046203613,10.09375,15.125,13.375
1696287083717,0.20678711,-0.5508423,-0.1326294,16.1875,9.21875,13.453125
1696287083747,0.39941406,-0.6321411,-0.17510986,32.4375,-1.046875,27.859375
1696287083796,0.17602539,-0.8521118,-0.13409424,23.390625,-21.234375,30.921875
1696287083822,-0.060302734,-1.4749146,0.08001709,-25.109375,7.9375,19.9375
1696287083869,0.234375,-2.0,0.21868896,-46.984375,9.0,12.0
1696287083915,0.6242676,-1.5552368,-0.029846191,3.828125,-3.703125,13.828125
1696287083942,0.517334,-1.0005493,-0.39215088,-1.65625,-33.8125,-1.890625
1696287083990,0.9562988,-1.0620728,0.19158936,4.328125,-9.953125,-4.890625
1696287084017,0.18359375,-1.0005493,-0.18634033,29.3125,-10.4375,-12.078125
1696287084065,0.3527832,-0.46905518,-0.28253174,21.328125,-13.40625,-9.53125
1696287084108,0.69873047,-0.7810669,-0.034729004,-11.328125,-11.15625,-10.765625
1696287084138,0.28564453,-0.86431885,-0.016418457,4.15625,-6.546875,-11.90625
1696287084183,0.24633789,-0.5549927,0.015808105,22.625,-12.4375,-6.265625
1696287084228,0.19726562,-0.3723755,-0.15924072,15.0,-17.25,-4.296875
1696287084257,0.30737305,-0.50079346,-0.024719238,9.765625,-13.71875,2.5
1696287084304,0.22949219,-0.692688,0.002380371,7.859375,-15.140625,4.203125
1696287084333,0.20776367,-0.9434204,-0.014709473,11.890625,-20.046875,2.53125
1696287084378,0.35961914,-1.2366333,0.109313965,-3.765625,-13.546875,-8.359375
1696287084423,0.26782227,-1.232727,0.0368042,1.875,15.53125,-14.5
1696287084451,0.4963379,-1.1773071,-0.20269775,-28.703125,-0.40625,-4.203125
1696287084499,1.0571289,-1.3396606,0.0040893555,-4.6875,38.828125,21.0625
1696287084527,-0.33764648,-1.2161255,-0.35723877,-16.59375,5.875,-31.78125
1696287084572,0.42797852,-0.6465454,-0.65997314,-0.28125,34.53125,-9.109375
1696287084618,0.71899414,-0.9380493,-0.08404541,-27.34375,17.1875,7.421875
1696287084649,0.20214844,-1.367981,-0.121398926,-1.421875,34.265625,3.984375
1696287084692,0.13476562,-0.8892212,-0.10601807,6.1875,11.078125,-1.8125
1696287084740,0.08642578,-0.58135986,-0.07501221,3.875,19.390625,3.453125
1696287084767,0.092285156,-0.53448486,-0.113586426,3.03125,24.828125,3.625
1696287084813,0.19384766,-0.378479,-0.06109619,3.03125,13.875,10.421875
1696287084842,0.10229492,-0.4024048,-0.10797119,-6.625,7.203125,15.265625
1696287084886,0.19702148,-0.690979,-0.1404419,-20.78125,4.5625,20.96875
1696287084933,0.16577148,-1.100647,-0.03692627,-26.171875,8.171875,27.125
1696287084962,0.23022461,-1.5237427,0.13812256,-44.171875,16.921875,6.9375
1696287085008,0.55126953,-1.894104,0.15863037,-28.71875,-1.484375,-2.6875
1696287085037,0.5690918,-1.3462524,-0.15460205,3.890625,-12.421875,8.40625
1696287085084,0.72680664,-1.1074829,-0.31524658,-3.65625,-8.828125,1.5625
1696287085127,0.7753906,-1.1228638,0.08416748,7.96875,-16.78125,-8.65625
1696287085158,0.2626953,-0.7503052,-0.1572876,21.015625,-11.609375,-0.40625
1696287085205,0.5407715,-0.54107666,-0.06085205,3.28125,-17.78125,-5.796875
1696287085232,0.67163086,-1.0344849,0.12689209,-11.65625,-23.796875,-0.46875
1696287085280,0.2043457,-0.89556885,0.06439209,19.671875,-17.5,-5.96875
1696287085322,0.05517578,-0.43756104,0.022644043,31.78125,-17.203125,-12.28125
1696287085352,0.25219727,-0.21514893,0.0018920898,24.453125,-13.140625,-6.015625
1696287085399,0.30493164,-0.4241333,-0.011779785,9.453125,-22.09375,10.359375
1696287085442,0.21484375,-0.51031494,-0.03741455,12.078125,-26.390625,2.140625
1696287085473,0.20629883,-0.71466064,0.11029053,14.0,-28.03125,9.109375
1696287085519,0.2680664,-1.229065,0.18206787,-9.546875,-8.8125,25.328125
1696287085548,0.7758789,-1.847229,0.4454956,-37.359375,12.515625,3.109375
1696287085593,0.4140625,-1.3672485,0.038269043,18.03125,-11.421875,-30.921875
1696287085639,0.921875,-1.0147095,-0.3887329,22.515625,4.78125,21.046875
1696287085667,-0.11816406,-1.1384888,0.60614014,-29.9375,42.25,-25.6875
1696287085714,-0.14013672,-0.89068604,-0.6038208,7.84375,-30.171875,-33.390625
1696287085743,0.72924805,-0.61309814,-0.2029419,-40.75,72.765625,2.53125
1696287085788,0.5996094,-1.3347778,0.0836792,-35.515625,3.53125,8.171875
1696287085835,0.064941406,-1.2515259,-0.07745361,-10.03125,23.4375,-4.671875
1696287085861,0.19360352,-0.9104614,0.023132324,-4.296875,18.59375,-6.578125
1696287085910,0.07519531,-0.723938,-0.047180176,-0.203125,29.796875,2.0
1696287085936,0.064941406,-0.53985596,-0.15338135,2.390625,21.546875,6.578125
1696287085983,0.1616211,-0.3098755,-0.0032348633,13.109375,38.578125,7.671875
1696287086029,0.078125,-0.52349854,-0.034240723,-9.953125,31.5625,11.265625
1696287086058,0.16845703,-0.6589966,-0.0647583,-9.0625,29.484375,13.9375
1696287086104,0.29296875,-1.06427,0.06536865,-33.796875,27.640625,17.328125
1696287086146,0.50390625,-1.9326782,0.14569092,-39.53125,25.625,17.296875
1696287086179,0.32373047,-1.5281372,0.0289917,-0.0625,-14.84375,19.921875
1696287086224,0.30395508,-1.279602,-0.1963501,-14.5625,-9.625,1.984375
1696287086252,0.82714844,-1.0706177,-0.0051879883,9.8125,3.171875,-5.125
1696287086300,0.56347656,-0.82354736,-0.3814087,2.578125,1.359375,-0.359375
1696287086344,0.32348633,-0.784729,0.032165527,-14.15625,-4.140625,-8.8125
1696287086373,0.22290039,-1.0149536,0.06341553,-29.96875,10.828125,-18.6875
1696287086419,0.2993164,-0.9404907,0.08929443,-19.84375,26.125,-21.5
1696287086447,0.234375,-0.7468872,-0.017150879,-12.34375,23.53125,-18.609375
1696287086494,0.3112793,-0.5874634,0.055847168,-15.984375,25.8125,-13.328125
1696287086539,0.10546875,-0.59869385,0.031188965,-23.453125,25.140625,-12.875
1696287086567,0.099609375,-0.616272,-0.0010375977,-17.8125,29.140625,-8.84375
1696287086612,0.20019531,-0.57647705,0.019714355,-20.609375,27.96875,-9.140625
1696287086642,0.18383789,-0.7229614,0.2074585,-25.421875,26.84375,-7.875
1696287086689,0.006591797,-0.9072876,0.22332764,-24.421875,43.234375,-9.1875
1696287086733,-0.040771484,-0.9414673,0.109069824,-20.984375,35.875,-9.65625
1696287086763,0.3642578,-0.91851807,0.12835693,-15.046875,28.453125,-7.984375
1696287086809,0.111572266,-1.067688,0.30950928,-13.46875,28.28125,-18.0625
1696287086854,0.2199707,-1.2178345,0.31121826,-15.515625,33.3125,0.296875
1696287086882,0.033447266,-1.211731,-0.06890869,-22.921875,19.140625,-14.484375
1696287086929,0.4033203,-1.3150024,-0.31573486,9.40625,72.5625,-4.515625
1696287086957,0.16088867,-0.7542114,0.6090698,-16.4375,102.3125,-7.96875
1696287087003,-0.068359375,-0.95684814,-0.26153564,-28.0,18.234375,-11.5
1696287087048,0.47387695,-1.3391724,-0.053527832,-49.71875,97.390625,1.640625
1696287087077,0.1965332,-1.1116333,0.34539795,0.859375,46.875,0.53125
1696287087123,-0.44555664,-0.6526489,-0.2468872,-13.3125,68.34375,-20.34375
1696287087152,0.15136719,-0.710022,0.03387451,-19.234375,96.640625,2.09375
1696287087199,0.125,-0.8171997,-0.062072754,-11.734375,59.21875,3.46875
1696287087242,-0.033447266,-0.8579712,0.053649902,-10.078125,56.859375,2.328125
1696287087271,-0.027832031,-1.0122681,0.10687256,-31.734375,46.171875,-0.609375
1696287087318,-0.07739258,-1.0828247,0.13568115,-29.5,41.90625,-11.15625
1696287087363,0.3088379,-1.1192017,0.06903076,-26.03125,28.25,-0.25
1696287087392,0.20532227,-1.4680786,-0.016174316,-37.75,26.046875,-5.421875
1696287087438,0.5683594,-0.9714966,-0.041809082,32.109375,49.015625,-16.875
1696287087467,0.4963379,-0.7317505,0.29119873,-12.453125,31.8125,4.671875
1696287087514,-0.038085938,-1.2236938,-0.055725098,-25.75,21.8125,-9.0
1696287087559,0.49243164,-1.4160767,-0.031799316,11.015625,51.078125,-15.140625
1696287087587,0.4477539,-0.7620239,0.1642456,7.265625,52.265625,-5.671875
1696287087631,0.041748047,-0.77008057,0.06512451,-9.59375,44.46875,0.796875
1696287087661,0.11791992,-0.8250122,0.0289917,-3.75,51.875,1.46875
1696287087709,0.29174805,-0.7185669,0.09515381,-7.71875,54.609375,3.984375
1696287087753,0.19335938,-0.75177,0.047302246,-2.484375,51.171875,3.96875
1696287087782,0.30273438,-0.85235596,0.086364746,-2.546875,39.5625,2.78125
1696287087829,0.25634766,-1.1060181,0.15911865,-8.90625,41.4375,5.921875
1696287087857,0.1628418,-1.3623657,0.28753662,-21.171875,39.1875,-5.015625
1696287087904,0.08520508,-1.3274536,0.3258667,-14.484375,25.5,-17.71875
1696287087948,0.32543945,-1.1377563,-0.11798096,0.265625,11.15625,-21.140625
1696287087977,0.79296875,-1.4043579,-0.021057129,-5.34375,16.171875,19.671875
1696287088023,-0.072265625,-1.0901489,-0.105529785,3.03125,52.953125,-31.203125
1696287088070,0.203125,-0.6951294,-0.5947876,0.25,41.78125,-2.359375
1696287088097,0.5612793,-1.022522,0.09710693,-11.15625,28.234375,-5.296875
1696287088144,0.087402344,-1.2588501,-0.094055176,-5.515625,26.953125,2.203125
1696287088172,0.1850586,-0.8467407,-0.09625244,7.34375,28.046875,-2.734375
1696287088218,0.24609375,-0.87164307,-0.05987549,0.953125,16.15625,10.5
1696287088263,0.18481445,-0.7905884,-0.034484863,10.328125,16.484375,11.1875
1696287088292,0.1027832,-0.5808716,0.01776123,16.78125,12.125,14.65625
1696287088338,0.03149414,-0.41680908,-0.089660645,10.328125,1.71875,18.90625
1696287088366,0.06298828,-0.54571533,-0.10748291,-3.90625,4.703125,16.03125
1696287088415,0.22631836,-0.7888794,-0.0335083,-12.203125,6.796875,18.109375
1696287088459,0.37963867,-1.1213989,0.0993042,-14.1875,13.53125,17.9375
1696287088504,0.33129883,-1.6743774,0.21746826,-41.625,3.734375,10.359375
1696287088532,0.4909668,-1.6790161,0.12567139,-0.28125,-21.234375,2.765625
1696287088562,0.47143555,-1.1802368,-0.14068604,0.09375,-10.921875,2.640625
1696287088607,0.5930176,-1.204895,-0.094055176,24.359375,-3.03125,-16.5625
1696287088654,0.6621094,-0.82818604,-0.08306885,19.015625,-8.03125,-1.625
1696287088683,0.21972656,-0.78302,-0.16339111,8.875,-12.96875,-0.953125
1696287088729,0.36669922,-0.94195557,0.012390137,-8.078125,-11.078125,-8.90625
1696287088773,0.35107422,-0.7476196,0.05291748,4.203125,-10.765625,-3.15625
1696287088802,0.12768555,-0.59576416,0.019226074,14.5,-10.71875,-9.21875
1696287088849,0.12402344,-0.3867798,-0.07745361,18.09375,3.421875,-6.359375
1696287088878,0.31152344,-0.38311768,-0.10089111,13.84375,1.34375,7.359375
1696287088923,0.3569336,-0.4824829,-0.044006348,10.703125,1.96875,8.71875
1696287088969,0.19067383,-0.7149048,0.04559326,2.140625,-5.59375,13.765625
1696287088997,0.2241211,-0.90948486,0.061950684,-1.84375,-5.78125,11.34375
1696287089045,0.54711914,-1.3528442,0.1552124,-17.4375,-8.125,18.375
1696287089073,0.5510254,-2.0,0.36883545,-20.390625,-13.4375,-15.171875
1696287089119,0.33374023,-1.6050415,0.11907959,4.25,-17.4375,-27.296875
1696287089164,0.8144531,-0.9873657,-0.113098145,15.6875,-21.828125,-10.359375
1696287089191,0.3708496,-1.2307739,0.08026123,-8.78125,-5.78125,-15.375
1696287089238,-0.27514648,-0.8694458,-0.4055786,-9.96875,5.1875,-40.6875
1696287089267,0.50146484,-0.62823486,-0.2991333,-15.046875,29.640625,-12.390625
1696287089313,0.67749023,-1.1089478,-0.10308838,-22.6875,-0.984375,-3.09375
1696287089358,0.118652344,-1.0195923,-0.058166504,6.015625,5.34375,1.703125
1696287089387,0.21899414,-0.7151489,-0.14117432,-2.6875,1.890625,7.578125
1696287089433,0.21899414,-0.67315674,0.014343262,0.078125,-1.953125,8.765625
1696287089477,0.02734375,-0.5466919,0.038024902,1.0,8.640625,11.75
1696287089507,-0.10620117,-0.3567505,0.07659912,7.359375,-0.890625,1.1875
1696287089554,0.07055664,-0.44439697,-0.07550049,-1.6875,-12.3125,5.09375
1696287089582,0.28979492,-0.80010986,-0.07354736,-13.203125,-12.8125,13.125
1696287089628,0.4230957,-0.99957275,0.08514404,7.015625,12.71875,11.828125
1696287089674,0.32421875,-1.581604,0.23260498,-12.828125,-8.96875,12.859375
1696287089702,0.47021484,-1.6963501,0.31121826,-30.234375,-13.390625,24.953125
1696287089750,0.19482422,-1.380188,-0.09136963,-19.609375,-21.203125,25.15625
1696287089777,0.7626953,-1.1375122,-0.16534424,16.140625,10.703125,6.390625
1696287089825,0.7961426,-0.85113525,0.12908936,8.375,-5.3125,-10.046875
1696287089868,0.29614258,-0.81622314,-0.24517822,11.25,-12.78125,-14.125
1696287089898,0.3803711,-1.0027466,0.024841309,-15.890625,-13.484375,-5.546875
1696287089947,0.4555664,-0.9873657,-0.047424316,-4.703125,-2.1875,-12.34375
1696287089972,0.1977539,-0.8562622,0.10858154,8.6875,-5.296875,-10.09375
1696287090018,0.26293945,-0.6223755,0.009460449,26.328125,-4.40625,-9.796875
1696287090064,0.35180664,-0.41656494,0.08270264,10.546875,7.875,5.015625
1696287090093,0.11743164,-0.52911377,0.008239746,4.59375,1.171875,6.921875
1696287090138,0.1875,-0.55352783,0.0914917,3.734375,1.390625,0.84375
1696287090183,0.26513672,-0.6182251,0.028015137,-3.015625,-12.671875,3.40625
1696287090213,0.3190918,-0.7786255,0.081970215,-24.921875,-28.1875,13.71875
1696287090258,0.3647461,-1.28302,0.14642334,-51.0625,-23.28125,0.515625
1696287090287,0.14892578,-1.9141235,0.6520386,-17.234375,-9.84375,-18.28125
1696287090334,0.3034668,-1.3880005,-0.082092285,27.3125,-26.21875,-9.15625
1696287090378,0.9875488,-1.0393677,0.41937256,1.65625,29.421875,16.25
1696287090406,-0.27197266,-1.3025513,0.09515381,-19.125,2.375,-29.375
1696287090454,0.12084961,-0.78375244,-0.51153564,25.765625,43.234375,-31.71875
1696287090483,0.94018555,-0.8374634,4.272461E-4,-52.625,81.609375,-2.203125
1696287090530,0.24633789,-1.2620239,0.16033936,-31.15625,-2.328125,3.390625
1696287090573,-0.11401367,-0.98760986,-0.06866455,12.671875,35.34375,-7.390625
1696287090605,0.40527344,-0.7461548,0.08026123,10.59375,19.1875,-5.6875
1696287090650,0.16577148,-0.6380005,-0.038879395,22.78125,15.46875,8.40625
1696287090693,0.048828125,-0.3040161,-0.07354736,28.25,12.875,14.296875
1696287090722,0.099853516,-0.20147705,0.010437012,14.71875,13.25,14.09375
1696287090769,0.088378906,-0.54473877,-0.058166504,-0.34375,-3.09375,21.046875
1696287090797,0.2541504,-0.84381104,-0.023742676,1.046875,22.921875,11.0625
1696287090843,0.33129883,-1.4841919,0.08514404,-25.140625,24.875,10.28125
1696287090888,0.21728516,-2.0,0.4069214,-40.265625,13.296875,-6.78125
1696287090917,0.33984375,-1.6304321,0.06585693,1.03125,-4.484375,6.109375
1696287090965,0.53759766,-1.2349243,-0.36358643,-6.59375,-7.34375,2.03125
1696287091040,0.907959,-1.2756958,-0.046936035,8.328125,1.65625,-4.71875
1696287091043,0.7609863,-0.91485596,0.1852417,0.96875,-9.6875,-17.859375
1696287091084,-0.0769043,-0.6057739,-0.26470947,-0.59375,-26.328125,-14.890625
1696287091113,0.51464844,-0.67681885,0.06707764,-8.578125,3.515625,-22.703125
1696287091159,0.35546875,-0.71661377,0.038513184,-5.484375,-17.046875,-7.96875
1696287091187,0.15063477,-0.5130005,0.04559326,5.828125,-14.140625,-13.6875
1696287091234,0.10986328,-0.34747314,-0.043762207,4.640625,-23.15625,-8.1875
1696287091278,0.20947266,-0.4505005,-0.0020141602,-2.9375,-24.90625,4.609375
1696287091307,0.2277832,-0.6902466,0.10101318,-5.0,-22.234375,12.1875
1696287091354,0.14453125,-0.88531494,0.17059326,-18.296875,-21.421875,4.171875
1696287091399,0.0793457,-1.0359497,0.21136475,2.828125,-9.46875,1.328125
1696287091426,0.29223633,-1.1314087,0.13885498,-0.03125,-5.078125,14.328125
1696287091474,0.20727539,-1.3338013,0.33929443,-6.875,6.78125,9.890625
1696287091501,-0.1784668,-1.3557739,0.2723999,-4.859375,9.21875,-6.75
1696287091549,0.32983398,-1.0774536,0.062683105,5.15625,16.34375,-0.78125
1696287091593,1.0908203,-1.2280884,0.07879639,10.90625,18.53125,38.953125
1696287091623,-0.16064453,-1.3948364,0.34661865,-17.84375,44.40625,-31.234375
1696287091669,-0.3701172,-0.7944946,-0.64019775,35.84375,13.328125,-23.4375
1696287091701,1.0012207,-0.88360596,-0.120910645,-53.734375,96.34375,3.21875
1696287091740,0.203125,-1.3809204,0.22723389,-33.71875,11.859375,3.140625
1696287091790,0.0021972656,-0.9768677,-0.12628174,15.5,50.515625,-10.390625
1696287091817,0.14550781,-0.659729,0.11785889,-9.890625,18.0625,-10.734375
1696287091866,-0.028564453,-0.64385986,0.055114746,-7.859375,46.46875,1.6875
1696287091892,-0.09375,-0.6148071,-0.023742676,-2.4375,42.65625,3.140625
1696287091940,0.12841797,-0.5725708,-0.003479004,-9.171875,45.1875,4.234375
1696287091984,0.029785156,-0.7293091,-0.0064086914,-18.15625,37.1875,6.09375
1696287092012,0.072509766,-0.87579346,0.09100342,-20.765625,40.71875,4.375
1696287092060,0.06567383,-0.9771118,0.1408081,-19.96875,30.90625,2.71875
1696287092135,-0.026367188,-1.0632935,0.24432373,-31.1875,31.921875,2.59375
1696287092138,-0.06518555,-1.0847778,0.14422607,-31.59375,27.046875,-5.890625
1696287092177,0.19311523,-1.0413208,0.17279053,-22.296875,28.78125,-4.5
1696287092207,0.33496094,-1.1946411,0.0036010742,-7.390625,39.8125,-3.09375
1696287092253,0.70654297,-1.1900024,0.09490967,-12.328125,-6.25,-12.421875
1696287092299,0.03491211,-0.8687134,-0.058166504,4.828125,21.03125,-0.9375
1696287092328,0.0769043,-1.0984497,0.06121826,-20.921875,30.546875,-11.640625
1696287092373,0.27856445,-1.2407837,0.03704834,-11.0,42.109375,-20.375
1696287092403,0.2253418,-1.0088501,0.11395264,-9.296875,43.234375,-9.546875
1696287092449,0.12768555,-0.81817627,0.09246826,-5.4375,49.375,-11.03125
1696287092493,0.12939453,-0.7678833,0.073913574,-15.578125,50.53125,-4.140625
1696287092521,0.1262207,-0.8023071,0.11810303,-10.203125,64.96875,0.78125
1696287092570,0.084472656,-0.8049927,0.10491943,-7.578125,54.15625,0.9375
1696287092598,0.009277344,-0.70758057,0.14813232,-7.046875,57.71875,-1.71875
1696287092643,0.07128906,-0.7420044,0.06854248,-5.4375,52.234375,-5.734375
1696287092690,0.2866211,-0.9849243,0.17962646,-21.796875,41.25,-5.359375
1696287092717,0.017822266,-1.1106567,0.37005615,-20.515625,55.015625,-18.546875
1696287092763,0.1706543,-1.0662231,-0.17315674,-22.421875,40.4375,-6.859375
1696287092808,0.4453125,-1.385315,-0.3418579,-8.125,67.609375,3.6875
1696287092841,-0.09790039,-1.2432251,0.42718506,4.15625,98.78125,-21.203125
1696287092882,-0.31689453,-1.0234985,-0.37872314,-28.1875,49.796875,-13.5625
1696287092911,0.6230469,-1.2739868,0.15911865,1.5,79.671875,-15.125
1696287092959,0.061035156,-1.0003052,0.0045776367,-1.9375,57.078125,13.234375
1696287093004,-0.27954102,-0.7227173,-0.0335083,-4.140625,51.3125,1.4375
1696287093032,0.2277832,-0.7515259,-0.037902832,2.125,51.484375,4.125
1696287093079,0.16186523,-0.9006958,-0.010559082,-12.0,38.421875,13.171875
1696287093106,0.08544922,-0.8796997,-0.047180176,-4.546875,30.046875,7.578125
1696287093154,0.091796875,-0.7678833,0.024353027,-2.453125,29.9375,5.1875
1696287093198,0.07861328,-1.0325317,0.11956787,-23.828125,19.90625,20.421875
1696287093227,0.09814453,-1.3713989,0.31658936,-14.078125,32.203125,6.484375
1696287093275,-0.17797852,-1.3504028,0.24334717,-5.0625,46.484375,0.796875
1696287093335,0.13964844,-1.4512329,-0.046447754,5.796875,49.59375,32.8125
1696287093346,0.8754883,-1.2930298,-0.4126587,-0.34375,29.765625,27.03125
1696287093393,0.6323242,-1.1658325,-0.082092285,11.328125,11.03125,4.796875
1696287093422,0.47265625,-0.7554321,-0.27349854,26.53125,11.71875,5.4375
1696287093470,0.5708008,-0.7991333,-0.042785645,-9.578125,5.609375,3.109375
1696287093512,0.39990234,-1.055481,0.020690918,-14.03125,9.59375,-1.015625
1696287093543,0.29223633,-0.8723755,0.077819824,-3.671875,6.453125,-14.734375
1696287093589,0.32202148,-0.7346802,-0.046936035,10.859375,-7.8125,-19.515625
1696287093617,0.32543945,-0.62872314,0.031677246,2.28125,0.734375,-9.328125
1696287093662,0.21386719,-0.61676025,0.028015137,-13.53125,-18.3125,-12.953125
1696287093709,0.16040039,-0.61505127,0.12030029,-6.3125,-4.40625,-23.078125
1696287093737,0.095214844,-0.4920044,0.1161499,3.65625,-17.46875,-27.0
1696287093785,-0.013427734,-0.48223877,-0.074523926,-1.765625,-8.890625,-9.953125
1696287093813,0.36547852,-0.68341064,-0.050842285,-8.359375,24.203125,5.78125
1696287093859,0.421875,-1.2756958,0.4647827,-4.75,21.140625,20.75
1696287093903,0.2475586,-1.5383911,0.3859253,-40.265625,5.859375,5.46875
1696287093932,0.10644531,-1.5630493,0.4537964,-21.828125,-16.625,-24.984375
1696287093978,0.30639648,-1.3169556,0.1083374,-3.046875,-12.09375,-19.390625
1696287094023,0.45629883,-1.1433716,-0.022277832,6.8125,17.53125,2.328125
1696287094053,0.4411621,-1.1082153,-0.18829346,-10.96875,11.390625,11.109375
1696287094100,0.17260742,-1.0396118,-0.21148682,-28.328125,25.09375,-12.59375
1696287094127,-0.010498047,-0.94537354,-0.10308838,-13.390625,-7.671875,15.09375
1696287094174,0.19506836,-1.041565,0.011657715,-26.875,14.53125,-8.796875
1696287094219,0.18359375,-0.94659424,0.042663574,3.75,20.40625,-0.03125
1696287094247,0.016601562,-0.8399048,0.04486084,10.296875,14.890625,6.28125
1696287094295,0.012939453,-0.8689575,-0.01763916,-3.796875,15.140625,9.921875
1696287094322,0.092285156,-0.73760986,-0.019836426,14.921875,19.59375,7.296875
1696287094368,0.13696289,-0.59747314,-0.015686035,16.921875,14.734375,13.765625
1696287094412,0.052001953,-0.5647583,-0.112854004,-1.890625,11.859375,14.9375
1696287094442,0.18481445,-0.6633911,0.034118652,-1.03125,17.25,21.546875
1696287094490,0.22216797,-0.7637329,-0.09576416,-4.203125,0.375,21.03125
1696287094517,0.19213867,-1.100647,0.2616577,2.625,19.890625,16.515625
1696287094563,0.3154297,-1.8660278,0.33514404,-41.28125,0.828125,20.75
1696287094610,0.57055664,-1.7727661,0.10345459,13.609375,-0.421875,20.5625
1696287094637,0.28271484,-1.1299438,-0.03692627,-2.609375,-10.625,5.84375
1696287094700,0.46948242,-1.0413208,0.16229248,7.078125,19.9375,-3.859375
1696287094760,0.50683594,-0.85821533,-0.29693604,33.625,7.28125,-7.0
1696287094766,0.42236328,-0.5984497,-0.18536377,23.640625,-13.5625,-5.25
1696287094803,0.56689453,-0.95440674,-0.030334473,-17.25,-9.75,-5.09375
1696287094832,0.2397461,-0.96832275,-0.0020141602,7.890625,2.390625,-5.375
1696287094879,0.2199707,-0.66119385,-0.042541504,13.90625,5.390625,-10.078125
1696287094923,0.45092773,-0.46148682,-0.041809082,14.453125,2.96875,4.953125
1696287094952,0.20385742,-0.5125122,0.022644043,8.5625,2.953125,6.796875
1696287094997,0.1003418,-0.5366821,-0.08062744,11.671875,-2.78125,3.015625
1696287095028,0.35839844,-0.52130127,-0.03741455,2.671875,-1.625,7.703125
1696287095074,0.40600586,-0.8623657,0.011657715,-3.90625,-2.75,17.28125
1696287095117,0.33666992,-1.4314575,0.14129639,-28.953125,-0.046875,11.8125
1696287095147,0.3239746,-1.65802,0.10076904,-11.203125,-3.65625,-17.46875
1696287095193,0.5617676,-1.2241821,-0.05206299,-3.875,-5.296875,-16.328125
1696287095221,1.059082,-1.2471313,-0.16217041,-5.296875,4.46875,14.609375
1696287095269,0.05810547,-1.3132935,0.18719482,7.75,24.828125,-25.5
1696287095314,-0.23632812,-0.706604,-0.4829712,19.0,1.140625,-31.125
1696287095343,0.87719727,-0.5737915,-0.3526001,-59.296875,81.359375,8.5625
1696287095388,0.24707031,-1.4400024,0.20159912,-21.46875,17.34375,-6.453125
1696287095434,0.009033203,-0.9573364,-0.22076416,20.15625,27.1875,-16.0
1696287095462,0.3708496,-0.48272705,0.055847168,6.390625,26.71875,-8.28125
1696287095509,0.118896484,-0.44561768,-0.14727783,5.578125,29.84375,4.609375
1696287095537,0.03173828,-0.4451294,-0.07354736,6.5625,12.921875,3.765625
1696287095584,0.18066406,-0.4348755,-0.159729,9.75,27.1875,3.046875
1696287095629,0.2006836,-0.6411743,-0.17974854,5.53125,7.765625,18.28125
1696287095658,0.32299805,-0.9026489,-0.128479,8.8125,17.578125,24.546875
1696287095704,0.3400879,-1.2410278,0.04559326,-1.703125,-5.171875,13.453125
1696287095732,-0.03881836,-1.6455688,0.21087646,-22.265625,7.78125,5.078125
1696287095778,0.41186523,-1.6997681,0.13250732,-31.71875,-0.4375,7.828125
1696287095824,0.44995117,-1.3401489,-0.25811768,-22.515625,-22.375,24.609375
1696287095852,0.60498047,-1.3726196,-0.2600708,-1.4375,-25.390625,-12.3125
1696287095899,0.9147949,-0.8599243,-0.050842285,16.515625,-11.421875,-0.484375
1696287095943,0.4868164,-0.7493286,-0.20855713,8.234375,-35.875,-0.984375
1696287095972,0.3630371,-0.7776489,0.08001709,0.546875,-13.390625,-15.515625
1696287096018,0.31762695,-0.97247314,-0.022033691,-1.5,-31.65625,-11.140625
1696287096047,0.3466797,-0.70391846,-0.05328369,3.875,-23.71875,-13.0
1696287096094,0.27563477,-0.58380127,-0.06451416,7.5625,-20.390625,-7.203125
1696287096137,0.18383789,-0.55133057,0.005554199,13.078125,-17.859375,1.765625
1696287096166,0.13476562,-0.49224854,-3.0517578E-4,8.484375,-16.609375,5.34375
1696287096214,0.15185547,-0.43218994,0.030456543,6.71875,-12.015625,10.421875
1696287096242,0.15795898,-0.598938,0.04168701,3.78125,-24.421875,11.84375
1696287096289,0.2211914,-0.9199829,0.001159668,3.390625,-25.84375,10.5
1696287096334,0.38134766,-1.5237427,0.3131714,-17.234375,19.625,14.21875
1696287096363,0.38549805,-1.7620239,0.26312256,12.75,-5.96875,-12.71875
1696287096409,0.27783203,-1.0379028,-0.11627197,17.9375,-4.21875,-22.578125
1696287096436,1.1264648,-1.1170044,-0.05255127,8.0,-9.890625,11.890625
1696287096485,-0.029296875,-1.2671509,-0.06524658,-16.015625,22.84375,-13.390625
1696287096527,-0.040771484,-0.97857666,-0.5967407,-3.96875,43.25,-27.96875
1696287096558,0.7199707,-0.8765259,0.09857178,-22.484375,21.921875,-8.59375
1696287096604,0.30078125,-1.2278442,-0.0056762695,-8.90625,34.703125,-2.390625
1696287096647,-0.02319336,-0.84869385,-0.012268066,11.109375,33.90625,-8.984375
1696287096675,0.17016602,-0.53009033,-0.15093994,8.0625,35.640625,1.25
1696287096724,0.17382812,-0.44195557,-0.10015869,16.28125,37.796875,11.5
1696287096752,0.076416016,-0.46148682,-0.0713501,5.296875,20.078125,13.8125
1696287096800,0.05517578,-0.54571533,-0.038146973,2.625,20.375,17.34375
1696287096844,0.057128906,-0.77545166,-0.09161377,-8.34375,26.0,15.328125
1696287096872,0.09814453,-1.0942993,-0.11798096,-13.859375,29.546875,15.875
1696287096918,0.34765625,-1.59552,-0.0012817383,-25.5,32.546875,20.984375
1696287096946,0.31860352,-1.4107056,0.07684326,-13.828125,24.375,19.640625
1696287096992,-0.114746094,-1.4519653,-0.3508911,-39.828125,-14.328125,25.8125
1696287097039,1.1003418,-1.4053345,-0.5232544,-6.3125,36.640625,24.265625
1696287097067,0.7819824,-0.9331665,-0.09942627,-12.21875,-19.140625,-20.453125
1696287097114,0.037353516,-0.92803955,-0.22686768,-18.6875,18.859375,-2.234375
1696287097142,0.29052734,-0.9692993,-0.044006348,-32.96875,29.765625,-25.34375
1696287097190,0.3803711,-0.9607544,-0.11090088,-27.125,32.625,-17.078125
1696287097231,0.43920898,-0.8677368,0.005554199,-25.53125,35.5625,-11.5
1696287097263,0.20458984,-0.736145,-0.010314941,-16.453125,32.328125,-16.890625
1696287097307,0.15527344,-0.47491455,-0.023986816,-11.796875,34.125,-15.265625
1696287097353,0.025878906,-0.5010376,-0.0012817383,-18.765625,32.734375,-13.859375
1696287097381,0.1730957,-0.58062744,-0.12945557,-5.59375,41.703125,-4.6875
1696287097430,0.17358398,-0.65875244,0.0079956055,-9.484375,20.8125,-1.703125
1696287097457,0.09741211,-0.8467407,0.0021362305,-11.296875,35.875,-4.796875
1696287097504,0.045898438,-0.99542236,0.19622803,-13.921875,32.859375,0.125
1696287097547,-0.029785156,-0.9006958,0.047058105,-6.5,41.5625,-2.40625
1696287097578,0.107177734,-0.8674927,0.101745605,-20.953125,42.53125,-2.546875
1696287097623,-0.029541016,-0.7034302,0.19866943,-16.921875,74.5625,-18.5625
1696287097651,0.1081543,-1.0371704,-0.6433716,-44.703125,38.0,14.1875
1696287097699,1.1279297,-1.4783325,-0.78790283,-18.53125,101.578125,35.703125
1696287097744,0.10644531,-1.3948364,0.6090698,-32.984375,13.984375,-9.15625
1696287097771,-1.1345215,-1.5662231,0.08856201,-60.5625,97.828125,-24.59375
1696287097818,0.30786133,-1.4160767,-0.27252197,-9.140625,89.140625,-25.453125
1696287097846,0.45239258,-0.59991455,-0.14874268,34.1875,88.96875,4.234375
1696287097893,-0.15966797,-0.6187134,-0.0569458,-8.859375,63.078125,12.25
1696287097939,-0.052490234,-0.94732666,-0.07159424,-4.3125,66.765625,1.421875
1696287097967,0.28637695,-0.79644775,-0.03253174,1.453125,49.671875,11.3125
1696287098014,0.118896484,-0.8386841,-0.03765869,-12.046875,32.421875,15.546875
1696287098059,0.0078125,-0.86846924,-0.05279541,-2.375,29.921875,4.03125
1696287098088,0.07080078,-0.7102661,-0.06060791,5.890625,37.4375,11.78125
1696287098133,0.0390625,-0.74102783,-0.066223145,-1.125,27.8125,18.765625
1696287098162,-0.12207031,-1.0623169,0.07659912,-6.703125,20.140625,25.375
1696287098208,-0.14379883,-1.9990845,0.38446045,-37.484375,33.40625,39.859375
1696287098254,0.6154785,-1.9400024,0.14178467,14.625,42.578125,28.4375
1696287098282,0.052734375,-1.053772,-0.34527588,14.03125,14.71875,11.59375
1696287098329,0.5966797,-1.1504517,-0.47930908,-11.90625,9.71875,33.4375
1696287098357,0.7224121,-1.1663208,0.2177124,-10.15625,18.171875,-14.453125
1696287098405,0.040771484,-0.7029419,-0.84698486,33.640625,8.890625,9.578125
1696287098448,1.0327148,-0.50738525,0.08416748,-21.234375,46.21875,-1.984375
1696287098476,0.63916016,-0.92388916,-0.074523926,-41.578125,20.921875,4.484375
1696287098524,0.12695312,-0.97857666,-0.07867432,-0.140625,14.78125,-2.78125
1696287098552,0.6628418,-0.5046997,-0.21807861,8.25,30.28125,-3.25
1696287098599,0.43237305,-0.55010986,-0.07330322,10.28125,12.375,2.921875
1696287098644,0.13330078,-0.5991821,-0.022277832,23.359375,11.640625,5.734375
1696287098672,0.32348633,-0.5835571,-0.06744385,22.453125,8.40625,3.59375
1696287098719,0.37451172,-0.78326416,-0.09674072,8.6875,-1.453125,12.953125
1696287098763,0.4560547,-1.1450806,-0.14361572,-5.65625,-2.703125,4.671875
1696287098792,0.5720215,-1.3738403,-0.0115356445,1.015625,13.53125,-4.0
1696287098839,0.1965332,-1.1567993,0.22161865,-10.203125,14.40625,-38.640625
1696287098867,0.44750977,-0.9092407,-0.45220947,-34.359375,-11.140625,-15.90625
1696287098914,1.173584,-0.8867798,-0.8567505,-33.65625,65.171875,22.71875
1696287098959,-0.25073242,-1.2610474,-0.04815674,-21.125,14.921875,-27.09375
1696287098987,0.2866211,-0.87164307,-0.7949829,-37.34375,32.125,-19.8125
1696287099035,0.72143555,-1.0408325,-0.22442627,-47.03125,71.296875,5.65625
1696287099062,0.25024414,-1.1209106,-0.013977051,-0.640625,-23.765625,0.828125
1696287099108,0.17895508,-0.6651001,-0.14093018,20.9375,20.046875,-2.078125
1696287099154,0.103759766,-0.54473877,-0.08795166,9.78125,-2.0,6.046875
1696287099182,0.09277344,-0.37823486,-0.19586182,19.65625,13.09375,5.390625
1696287099229,0.17529297,-0.35699463,-0.120666504,4.03125,17.78125,-3.8125
1696287099274,0.26879883,-0.5142212,-0.17071533,-0.09375,-0.484375,21.96875
1696287099302,0.4567871,-0.6069946,-0.090148926,-4.109375,-12.625,24.421875
1696287099348,0.01928711,-1.0130005,-0.14727783,-4.109375,-20.875,16.953125
1696287099377,0.017333984,-1.5432739,0.093444824,9.859375,16.375,-0.125
1696287099424,0.43530273,-1.8428345,0.13494873,-40.25,7.625,2.875
1696287099468,0.5805664,-1.5703735,-0.03765869,-28.875,-19.453125,2.140625
1696287099496,0.5683594,-1.2891235,-0.3875122,-8.984375,-12.984375,12.34375
1696287099545,0.8708496,-0.98223877,-0.29327393,18.515625,10.859375,-12.265625
1696287099572,0.58032227,-0.8936157,0.06878662,5.0625,2.78125,-12.609375
1696287099619,0.1381836,-0.6519165,-0.27886963,14.796875,-2.53125,-14.984375
1696287099664,0.4013672,-0.52423096,-0.1716919,-6.328125,-1.078125,-17.390625
1696287099692,0.3310547,-0.8274536,-0.027648926,-19.5,-5.6875,-11.828125
1696287099738,0.22363281,-0.6975708,0.014831543,7.3125,-0.171875,-12.21875
1696287099767,0.375,-0.4751587,-0.11871338,14.625,-6.46875,-3.90625
1696287099814,0.22851562,-0.49786377,0.031921387,-2.875,-16.421875,6.25
1696287099859,0.12866211,-0.6030884,0.0079956055,3.4375,-15.546875,1.375
1696287099890,0.09643555,-0.6741333,0.026794434,6.59375,-20.40625,5.53125
1696287099933,0.18774414,-0.93707275,-0.013244629,-6.875,-24.484375,4.46875
1696287099981,0.52001953,-1.5562134,0.2814331,-34.46875,-10.3125,11.96875
1696287100007,0.31420898,-1.6611938,0.13665771,4.6875,5.015625,-7.1875
1696287100053,0.71435547,-0.96466064,-0.24786377,33.25,-18.8125,6.671875
1696287100083,0.59814453,-1.1091919,-0.08306885,-24.671875,25.25,29.96875
1696287100130,-0.38476562,-1.022522,-0.21710205,16.28125,-25.859375,-35.296875
1696287100174,0.6281738,-0.64434814,-0.65338135,-6.359375,45.625,-7.296875
1696287100202,0.5786133,-1.1187134,-0.01739502,-31.15625,52.40625,6.125
1696287100248,0.3461914,-1.1521606,-0.2156372,-15.984375,14.09375,-29.3125
1696287100277,0.28051758,-0.84381104,-0.21759033,6.328125,23.84375,7.1875
1696287100324,0.1640625,-0.88067627,-0.11212158,-1.984375,17.0,2.90625
1696287100369,0.17358398,-0.737854,-0.1729126,12.21875,24.28125,-1.859375
1696287100398,0.16918945,-0.52716064,-0.09893799,17.359375,29.78125,2.0
1696287100443,0.1394043,-0.4673462,-0.15362549,6.5625,10.640625,8.265625
1696287100472,0.22631836,-0.6663208,-0.18511963,-1.65625,13.25,10.015625
1696287100519,0.24975586,-0.8311157,-0.1296997,3.484375,1.0,13.640625
1696287100564,0.20166016,-1.0039673,-0.16119385,5.4375,-1.53125,9.671875
1696287100591,0.27539062,-1.2024536,-0.09454346,-10.1875,2.171875,14.046875
1696287100640,0.26782227,-1.447815,0.05633545,-30.15625,-1.453125,6.5
1696287100683,0.24121094,-1.4151001,-0.15460205,-20.046875,-15.078125,3.484375
1696287100712,0.5456543,-1.1416626,-0.5076294,0.796875,-10.609375,13.015625
1696287100758,0.8881836,-1.2737427,-0.1687622,-25.421875,3.03125,12.125
1696287100787,0.35351562,-1.078186,0.0038452148,15.734375,-37.734375,-6.84375
1696287100834,0.24829102,-0.5540161,-0.36505127,17.046875,-24.265625,-4.71875
1696287100878,0.63916016,-0.54815674,-0.09259033,1.078125,-25.078125,-8.515625
1696287100907,0.48046875,-0.88360596,0.015075684,-10.265625,-23.171875,5.546875
1696287100955,0.21142578,-0.8218384,0.046569824,7.59375,-19.96875,-2.84375
1696287100983,0.31347656,-0.64263916,-0.059387207,11.765625,-25.34375,-4.40625
1696287101030,0.40673828,-0.6187134,-0.023986816,2.171875,-24.046875,3.984375
1696287101073,0.25561523,-0.72052,0.012390137,0.28125,-15.9375,4.421875
1696287101102,0.22851562,-0.73028564,0.038757324,-2.109375,-9.609375,-0.03125
1696287101149,0.20019531,-0.76104736,0.116882324,-4.1875,-3.265625,-5.40625
1696287101177,0.32177734,-0.8201294,-0.023986816,3.71875,-12.671875,-2.1875
1696287101223,0.46166992,-0.9692993,0.018737793,-1.15625,-2.28125,-1.25
1696287101268,0.30932617,-1.1707153,0.13934326,5.078125,-4.0,-9.265625
1696287101298,0.26953125,-1.2241821,0.02947998,-3.203125,-3.84375,-15.90625
1696287101341,0.7297363,-1.2153931,-0.18365479,-4.234375,-25.140625,3.625
1696287101387,0.8112793,-1.5628052,0.19378662,-3.421875,12.9375,17.328125
1696287101418,0.012451172,-1.0598755,-0.21929932,1.0,18.390625,-37.734375
1696287101461,0.3959961,-0.5459595,-0.29595947,-4.546875,24.703125,1.015625
1696287101492,0.4099121,-0.97320557,-0.13311768,-22.0625,25.9375,-0.390625
1696287101536,0.16674805,-1.1089478,-0.032287598,-15.84375,17.734375,-8.921875
1696287101584,0.2602539,-0.74298096,-0.053527832,1.21875,28.234375,-7.265625
1696287101612,0.25512695,-0.7046509,-0.06866455,-5.953125,22.3125,3.921875
1696287101660,0.1550293,-0.8206177,-0.039611816,-11.078125,22.859375,6.25
1696287101687,0.17163086,-0.7815552,-0.016174316,-0.8125,22.703125,2.46875
1696287101734,0.22705078,-0.67755127,-0.065979004,-0.734375,20.78125,6.5
1696287101777,0.171875,-0.6338501,-0.061828613,-2.8125,20.921875,10.09375
1696287101807,0.25170898,-0.76934814,-0.04840088,-2.921875,14.53125,12.34375
1696287101854,0.17871094,-0.8418579,-0.10992432,-5.03125,8.5,13.6875
1696287101898,0.29248047,-0.9307251,-0.054748535,-2.5,8.953125,13.71875
1696287101928,0.32373047,-1.0569458,0.039001465,-0.5625,4.671875,9.171875
1696287101974,0.15283203,-1.1582642,0.0138549805,-18.09375,-1.96875,10.5
1696287102003,0.51953125,-1.3396606,0.022155762,-20.6875,6.953125,12.359375
1696287102050,0.72509766,-1.4968872,-0.04473877,-14.046875,-8.0625,13.078125
1696287102093,0.46289062,-1.2752075,-0.12261963,10.109375,-14.6875,0.796875
1696287102122,0.48486328,-0.9837036,-0.18658447,6.875,1.171875,-3.15625
1696287102170,0.5383301,-0.77911377,-0.013000488,2.1875,-10.140625,-5.09375
1696287102244,0.49389648,-0.8340454,-0.19952393,-2.65625,-19.953125,-8.71875
1696287102250,0.5197754,-0.8460083,0.09124756,-5.46875,-11.203125,-9.171875
1696287102289,0.3725586,-0.76348877,0.0038452148,-3.015625,-22.921875,-9.171875
1696287102316,0.3022461,-0.6992798,0.11444092,2.3125,-20.390625,-11.328125
1696287102364,0.29785156,-0.61676025,-0.04473877,-1.546875,-25.890625,-15.0
1696287102392,0.31347656,-0.6741333,0.10491943,-3.75,-19.40625,-11.203125
1696287102439,0.30004883,-0.6734009,0.046569824,3.546875,-15.46875,-7.421875
1696287102483,0.27441406,-0.74835205,0.101257324,-2.484375,-18.828125,-9.734375
1696287102513,0.2607422,-0.88238525,0.10028076,-3.3125,-13.125,-8.546875
1696287102559,0.31982422,-0.8731079,0.1251831,0.875,-0.5,-9.28125
1696287102604,0.19189453,-0.892395,0.12445068,0.0,1.859375,-9.0
1696287102632,0.22387695,-0.94781494,0.098083496,-1.203125,3.65625,-6.390625
1696287102680,0.2524414,-0.99957275,0.21942139,-5.921875,19.234375,-11.296875
1696287102708,0.21435547,-0.96710205,0.340271,-29.46875,29.484375,-19.484375
1696287102754,0.021728516,-0.9307251,0.34100342,-20.0,28.15625,-23.40625
1696287102798,0.36889648,-1.2476196,0.026306152,-14.15625,2.671875,-21.6875
1696287102828,0.6828613,-0.9932251,0.0026245117,2.078125,3.078125,-8.8125
1696287102874,-0.1328125,-0.6135864,-0.0012817383,9.359375,18.90625,-7.296875
1696287102902,0.12402344,-0.8352661,0.1605835,-18.265625,-4.171875,-9.640625
1696287102948,0.1496582,-1.1089478,0.13079834,-15.90625,15.484375,-7.03125
1696287102992,0.10473633,-1.0178833,0.019958496,-5.734375,26.390625,-15.28125
1696287103021,-0.018554688,-0.9456177,0.04876709,-12.484375,25.890625,-14.640625
1696287103066,0.010009766,-1.0061646,0.12420654,-8.34375,20.046875,-8.796875
1696287103096,0.049804688,-1.0542603,0.12640381,-15.65625,17.75,-6.921875
1696287103144,0.04711914,-1.0432739,0.20135498,-2.21875,11.71875,-6.28125
1696287103188,0.109375,-0.94659424,0.09173584,4.296875,13.921875,-2.578125
1696287103217,0.019042969,-0.9168091,0.10662842,-2.796875,5.4375,1.40625
