# Sensor type: Respeck
# Activity type: Lying down on stomach
# Activity subtype: Normal
# Subject id: s2094833
# Notes: 
timestamp,accel_x,accel_y,accel_z,gyro_x,gyro_y,gyro_z
1696292078334,0.122802734,-0.10235596,-0.9463501,-0.6875,-1.3125,0.171875
1696292078379,0.12402344,-0.10650635,-0.95318604,-0.578125,-1.53125,0.25
1696292078409,0.123291016,-0.093566895,-0.9500122,-0.328125,-1.5625,0.1875
1696292078439,0.12866211,-0.09552002,-0.9512329,-1.21875,-2.265625,0.203125
1696292078485,0.12133789,-0.101623535,-0.9468384,-1.40625,-2.1875,0.21875
1696292078530,0.1274414,-0.109191895,-0.95147705,-1.015625,-1.640625,0.078125
1696292078559,0.12963867,-0.097961426,-0.9470825,-0.546875,-1.609375,0.25
1696292078605,0.12890625,-0.10284424,-0.9512329,-1.109375,-1.671875,0.203125
1696292078634,0.13720703,-0.109436035,-0.95147705,-1.0625,-1.828125,0.046875
1696292078680,0.13354492,-0.101135254,-0.9507446,-1.140625,-1.578125,0.015625
1696292078725,0.13476562,-0.10357666,-0.9505005,-1.4375,-1.59375,-0.03125
1696292078754,0.13623047,-0.10845947,-0.94366455,-0.78125,-1.875,0.015625
1696292078799,0.12841797,-0.10235596,-0.9378052,-0.65625,-3.171875,-0.0625
1696292078844,0.13745117,-0.108947754,-0.96051025,-2.9375,-3.203125,-0.265625
1696292078875,0.14233398,-0.108947754,-0.9417114,-1.671875,-2.203125,-0.078125
1696292078918,0.1418457,-0.11627197,-0.95513916,-1.59375,-2.609375,-0.09375
1696292078949,0.14355469,-0.11090088,-0.94244385,-1.234375,-2.203125,-0.015625
1696292078994,0.14501953,-0.11431885,-0.9421997,-1.453125,-2.328125,-0.09375
1696292079039,0.15014648,-0.113586426,-0.9434204,-0.953125,-2.53125,-0.015625
1696292079070,0.15185547,-0.117004395,-0.94610596,-1.390625,-2.03125,0.03125
1696292079115,0.15039062,-0.117004395,-0.94659424,-1.875,-2.203125,0.0625
1696292079144,0.15478516,-0.12213135,-0.9480591,-1.5625,-2.03125,0.03125
1696292079190,0.15454102,-0.11529541,-0.94195557,-1.375,-1.609375,0.078125
1696292079235,0.15893555,-0.11773682,-0.9456177,-1.25,-1.84375,0.03125
1696292079265,0.1586914,-0.117492676,-0.9402466,-1.09375,-1.59375,0.0625
1696292079310,0.16064453,-0.124816895,-0.93829346,-1.375,-1.78125,0.03125
1696292079339,0.16113281,-0.12359619,-0.94537354,-1.203125,-1.9375,0.046875
1696292079385,0.16333008,-0.12432861,-0.94659424,-1.234375,-1.8125,0.109375
1696292079431,0.16748047,-0.121154785,-0.94659424,-0.8125,-1.703125,0.171875
1696292079459,0.15966797,-0.12213135,-0.9500122,-1.0625,-1.546875,-0.046875
1696292079506,0.15917969,-0.12335205,-0.9348755,-0.828125,-1.546875,-0.046875
1696292079581,0.15527344,-0.12530518,-0.9439087,-1.0625,-1.296875,0.03125
1696292079587,0.16308594,-0.12799072,-0.9356079,-0.765625,-1.203125,-0.046875
1696292079624,0.16357422,-0.12823486,-0.9456177,-1.171875,-1.453125,0.046875
1696292079655,0.1652832,-0.13043213,-0.93878174,-0.734375,-1.15625,0.0625
1696292079699,0.1574707,-0.12286377,-0.94317627,-0.703125,-0.875,0.203125
1696292079746,0.16308594,-0.128479,-0.942688,-1.140625,-1.109375,0.203125
1696292079774,0.16748047,-0.12164307,-0.94781494,-0.78125,-0.96875,0.0625
1696292079820,0.16015625,-0.12945557,-0.9451294,-0.96875,-0.78125,0.109375
1696292079849,0.16186523,-0.120910645,-0.94976807,-0.625,-0.046875,0.171875
1696292079896,0.1640625,-0.12823486,-0.93927,-0.03125,0.09375,0.234375
1696292079940,0.1586914,-0.12701416,-0.94732666,0.28125,0.96875,0.21875
1696292079970,0.15600586,-0.12701416,-0.9343872,1.375,0.890625,0.3125
1696292080014,0.15136719,-0.11895752,-0.9324341,1.25,0.484375,0.1875
1696292080044,0.15258789,-0.11651611,-0.9529419,0.828125,0.34375,0.0625
1696292080090,0.1550293,-0.120666504,-0.9517212,-0.03125,0.484375,0.21875
1696292080136,0.14624023,-0.113098145,-0.9463501,0.3125,0.328125,0.171875
1696292080164,0.15161133,-0.11602783,-0.94244385,0.546875,0.5625,0.375
1696292080210,0.14233398,-0.11602783,-0.94000244,-0.25,-0.046875,0.171875
1696292080255,0.14355469,-0.11431885,-0.940979,-0.03125,-0.125,0.296875
1696292080284,0.14086914,-0.11090088,-0.944397,-0.453125,-0.046875,0.078125
1696292080330,0.14257812,-0.12042236,-0.9495239,0.015625,-0.078125,0.328125
1696292080360,0.1418457,-0.10845947,-0.9483032,0.296875,0.375,0.203125
1696292080404,0.14257812,-0.11651611,-0.9553833,-1.125,-0.34375,0.15625
1696292080449,0.13793945,-0.1116333,-0.9536743,-1.328125,-0.78125,0.21875
1696292080480,0.13647461,-0.109191895,-0.9475708,-0.640625,-0.578125,0.15625
1696292080524,0.1328125,-0.11553955,-0.94488525,-0.15625,-0.328125,0.1875
1696292080554,0.1381836,-0.11114502,-0.9483032,-0.203125,-0.109375,0.15625
1696292080600,0.13378906,-0.1116333,-0.9470825,-0.53125,-0.40625,0.140625
1696292080661,0.13720703,-0.11456299,-0.9507446,-0.328125,-0.34375,0.296875
1696292080675,0.13891602,-0.11578369,-0.9561157,-0.421875,-0.609375,0.25
1696292080720,0.12866211,-0.11090088,-0.9475708,-0.171875,-0.953125,0.109375
1696292080765,0.13208008,-0.10845947,-0.9458618,-0.125,-1.015625,0.234375
1696292080795,0.13208008,-0.10870361,-0.9536743,-0.5,-0.921875,0.09375
1696292080840,0.13500977,-0.10772705,-0.94781494,-0.34375,-0.75,0.203125
1696292080869,0.13745117,-0.1104126,-0.95440674,-0.453125,-0.828125,0.28125
1696292080914,0.13574219,-0.10650635,-0.9470825,-0.359375,-0.78125,0.171875
1696292080962,0.1303711,-0.113586426,-0.95098877,-0.59375,-0.75,0.1875
1696292080989,0.13183594,-0.10870361,-0.9480591,-0.46875,-0.53125,0.078125
1696292081052,0.1394043,-0.10870361,-0.9558716,-0.75,-0.734375,0.171875
1696292081109,0.13769531,-0.11090088,-0.94488525,-0.328125,-0.84375,0.140625
1696292081112,0.13476562,-0.10772705,-0.9546509,-0.890625,-0.828125,0.125
1696292081154,0.13183594,-0.10845947,-0.9541626,-0.5,-0.875,0.03125
1696292081185,0.13134766,-0.10870361,-0.94732666,-0.5625,-0.65625,0.109375
1696292081231,0.12939453,-0.10723877,-0.95269775,-0.484375,-0.453125,0.34375
1696292081260,0.13232422,-0.10797119,-0.94488525,-0.40625,-0.59375,0.265625
1696292081305,0.13061523,-0.10308838,-0.95391846,-0.6875,-0.78125,0.109375
1696292081349,0.12939453,-0.10479736,-0.9553833,-0.515625,-0.859375,0.09375
1696292081380,0.1315918,-0.10797119,-0.95098877,-0.484375,-1.0625,0.125
1696292081424,0.13208008,-0.108947754,-0.9524536,-0.53125,-1.125,0.015625
1696292081499,0.12915039,-0.11236572,-0.95513916,-0.4375,-0.828125,0.21875
1696292081501,0.1303711,-0.101379395,-0.9536743,-0.6875,-0.828125,0.21875
1696292081546,0.12475586,-0.10650635,-0.9458618,-0.625,-0.984375,0.1875
1696292081574,0.1274414,-0.11212158,-0.95391846,-0.515625,-1.03125,0.109375
1696292081621,0.13012695,-0.11090088,-0.9468384,-0.578125,-1.171875,0.125
1696292081665,0.122558594,-0.10430908,-0.94537354,-0.65625,-1.046875,0.140625
1696292081694,0.1303711,-0.11065674,-0.9507446,-0.46875,-1.21875,0.15625
1696292081740,0.13134766,-0.105529785,-0.9524536,-0.859375,-1.34375,0.109375
1696292081770,0.12963867,-0.09942627,-0.9421997,-0.296875,-1.4375,0.203125
1696292081830,0.13476562,-0.10772705,-0.940979,-0.96875,-1.734375,0.15625
1696292081859,0.13012695,-0.10479736,-0.94415283,-0.8125,-1.78125,0.078125
1696292081890,0.13208008,-0.10650635,-0.9492798,-0.890625,-1.765625,0.015625
1696292081936,0.12866211,-0.10748291,-0.9505005,-1.1875,-2.046875,0.1875
1696292081964,0.13623047,-0.11138916,-0.9404907,-1.234375,-2.03125,0.078125
1696292082010,0.13330078,-0.1104126,-0.9492798,-1.1875,-2.421875,0.15625
1696292082054,0.13354492,-0.11529541,-0.95318604,-1.3125,-2.328125,0.09375
1696292082085,0.14648438,-0.11407471,-0.9417114,-1.4375,-1.90625,0.15625
1696292082131,0.14526367,-0.11260986,-0.9468384,-0.515625,-1.703125,0.15625
1696292082176,0.14526367,-0.1104126,-0.95025635,-0.8125,-1.90625,0.125
1696292082204,0.14208984,-0.10992432,-0.94610596,-1.0,-1.90625,0.078125
1696292082249,0.1472168,-0.10601807,-0.9500122,-1.328125,-2.171875,0.1875
1696292082279,0.14575195,-0.11260986,-0.9480591,-1.296875,-1.921875,-0.125
1696292082326,0.15332031,-0.11505127,-0.94488525,-1.21875,-2.140625,-0.03125
1696292082370,0.14868164,-0.11627197,-0.9487915,-1.484375,-2.015625,0.03125
1696292082400,0.15112305,-0.11846924,-0.9470825,-1.171875,-2.265625,0.0625
1696292082445,0.14892578,-0.11651611,-0.94317627,-1.796875,-1.875,0.015625
1696292082474,0.1586914,-0.117492676,-0.94976807,-1.96875,-1.8125,0.09375
1696292082520,0.14819336,-0.12506104,-0.9429321,-1.328125,-2.046875,0.078125
1696292082564,0.15478516,-0.11968994,-0.94610596,-1.5,-1.65625,0.0
1696292082594,0.15429688,-0.121398926,-0.9378052,-1.375,-1.53125,0.03125
1696292082639,0.15478516,-0.12945557,-0.94366455,-1.671875,-1.828125,0.09375
1696292082669,0.15698242,-0.12359619,-0.94122314,-1.390625,-1.640625,0.109375
1696292082714,0.15600586,-0.12554932,-0.94781494,-1.09375,-1.890625,0.09375
1696292082760,0.16992188,-0.12799072,-0.93951416,-1.34375,-1.609375,0.078125
1696292082789,0.15820312,-0.12994385,-0.94195557,-1.03125,-1.59375,0.125
1696292082835,0.16113281,-0.13116455,-0.93829346,-1.140625,-1.609375,0.109375
1696292082880,0.1652832,-0.12579346,-0.94195557,-1.3125,-1.484375,0.015625
1696292082909,0.16308594,-0.12945557,-0.9385376,-0.9375,-1.53125,0.125
1696292082954,0.16625977,-0.12896729,-0.94000244,-1.09375,-1.265625,0.125
1696292083000,0.16308594,-0.12652588,-0.9417114,-0.953125,-1.125,0.21875
1696292083029,0.16381836,-0.13287354,-0.94317627,-0.921875,-0.890625,0.203125
1696292083074,0.16967773,-0.12994385,-0.93463135,-0.109375,-1.015625,0.234375
1696292083104,0.16308594,-0.1296997,-0.9456177,-0.578125,-0.78125,0.109375
1696292083150,0.16137695,-0.13043213,-0.9429321,-1.15625,-0.9375,0.34375
1696292083180,0.16870117,-0.1338501,-0.94854736,-1.015625,-0.953125,0.0625
1696292083227,0.16430664,-0.13336182,-0.93829346,-0.890625,-0.8125,0.078125
1696292083270,0.16088867,-0.1296997,-0.94659424,-0.828125,-0.84375,0.0625
1696292083299,0.16625977,-0.1326294,-0.9534302,-0.546875,-0.1875,0.265625
1696292083347,0.16601562,-0.13531494,-0.95098877,-0.171875,0.90625,0.109375
1696292083390,0.15551758,-0.12799072,-0.93218994,1.90625,1.859375,0.3125
1696292083418,0.15527344,-0.12261963,-0.92852783,2.4375,1.171875,0.390625
1696292083464,0.14648438,-0.11798096,-0.9507446,1.34375,0.921875,0.28125
1696292083494,0.15454102,-0.11798096,-0.94659424,0.59375,0.453125,0.296875
1696292083539,0.14672852,-0.12213135,-0.94976807,0.28125,0.234375,0.125
1696292083583,0.14624023,-0.1194458,-0.95391846,0.15625,0.234375,0.28125
1696292083615,0.14453125,-0.11627197,-0.9463501,-0.109375,0.0,0.140625
1696292083660,0.14111328,-0.117492676,-0.9470825,-0.015625,0.03125,0.28125
1696292083689,0.14135742,-0.10992432,-0.9429321,0.046875,-0.28125,0.15625
1696292083751,0.14160156,-0.10845947,-0.94195557,0.21875,-0.21875,0.1875
1696292083779,0.1352539,-0.11114502,-0.9385376,0.328125,-0.1875,0.28125
1696292083809,0.14526367,-0.1116333,-0.956604,-0.71875,-0.75,0.25
1696292083856,0.14013672,-0.11578369,-0.94854736,-0.796875,-0.703125,0.078125
1696292083884,0.13964844,-0.11529541,-0.9475708,-0.328125,-0.5625,0.09375
1696292083933,0.14038086,-0.1038208,-0.954895,-0.265625,-0.59375,0.0625
1696292083976,0.14038086,-0.11187744,-0.9483032,-0.34375,-0.65625,0.1875
1696292084005,0.13842773,-0.113098145,-0.94488525,-0.453125,-0.78125,0.28125
1696292084050,0.13989258,-0.10235596,-0.94122314,-0.671875,-0.921875,0.203125
1696292084094,0.13671875,-0.109680176,-0.94903564,-0.6875,-1.140625,0.046875
1696292084124,0.13549805,-0.11212158,-0.94976807,-0.4375,-1.046875,0.078125
1696292084171,0.13720703,-0.113098145,-0.9505005,-0.328125,-0.75,0.09375
1696292084198,0.14013672,-0.11212158,-0.9522095,-0.53125,-0.96875,0.15625
1696292084247,0.13769531,-0.10748291,-0.95147705,-0.28125,-0.875,0.3125
1696292084290,0.14086914,-0.11138916,-0.94976807,-0.453125,-0.734375,0.09375
1696292084320,0.13452148,-0.109191895,-0.94732666,-0.40625,-0.828125,0.03125
1696292084364,0.13671875,-0.113586426,-0.94366455,-0.59375,-0.8125,0.03125
1696292084394,0.13305664,-0.105285645,-0.9487915,-0.578125,-0.828125,0.15625
1696292084439,0.13012695,-0.11114502,-0.9429321,-0.3125,-0.625,0.0625
1696292084485,0.1303711,-0.11529541,-0.9434204,-0.484375,-0.546875,0.046875
1696292084530,0.13378906,-0.1038208,-0.95098877,-0.625,-0.6875,0.171875
1696292084559,0.13476562,-0.10064697,-0.9480591,-1.0,-0.96875,0.125
1696292084590,0.13671875,-0.10699463,-0.9483032,-0.640625,-0.6875,0.265625
1696292084636,0.13110352,-0.10723877,-0.9500122,-0.546875,-0.578125,0.140625
1696292084679,0.12963867,-0.10772705,-0.9505005,-0.28125,-0.84375,0.078125
1696292084709,0.1303711,-0.10430908,-0.94854736,-0.59375,-0.796875,0.140625
1696292084755,0.13623047,-0.10992432,-0.95196533,-0.703125,-0.75,0.140625
1696292084831,0.13769531,-0.10675049,-0.9517212,-0.4375,-0.875,0.09375
1696292084833,0.1328125,-0.10650635,-0.94122314,-0.640625,-0.953125,0.09375
1696292084874,0.13305664,-0.10748291,-0.94781494,-0.484375,-0.578125,0.0
1696292084904,0.1340332,-0.10870361,-0.9483032,-0.40625,-0.75,0.109375
1696292084952,0.13256836,-0.10772705,-0.94659424,-0.625,-0.875,0.28125
1696292084994,0.13012695,-0.11553955,-0.9480591,-0.578125,-0.90625,0.171875
1696292085024,0.13232422,-0.109191895,-0.94781494,-0.59375,-1.0,0.140625
1696292085071,0.13696289,-0.105529785,-0.94903564,-0.625,-1.03125,0.125
1696292085099,0.1328125,-0.11456299,-0.9468384,-0.546875,-1.171875,-0.03125
1696292085146,0.1303711,-0.105041504,-0.95318604,-0.59375,-1.265625,0.171875
1696292085190,0.1315918,-0.113586426,-0.9439087,-0.421875,-1.15625,-0.015625
1696292085220,0.13427734,-0.105529785,-0.9475708,-1.171875,-1.515625,-0.03125
1696292085265,0.1394043,-0.11138916,-0.95562744,-1.0625,-1.78125,0.125
1696292085294,0.13208008,-0.101867676,-0.94781494,-0.828125,-1.5,0.125
1696292085340,0.13720703,-0.10601807,-0.94903564,-1.046875,-1.546875,0.0625
1696292085386,0.1340332,-0.11065674,-0.9429321,-0.921875,-1.75,-0.03125
1696292085414,0.13696289,-0.11138916,-0.95440674,-1.265625,-1.59375,0.0
1696292085459,0.13647461,-0.10723877,-0.9483032,-0.78125,-1.609375,0.015625
1696292085505,0.13916016,-0.109436035,-0.94488525,-1.0625,-1.53125,0.203125
1696292085534,0.13598633,-0.10797119,-0.94976807,-0.921875,-1.859375,0.078125
1696292085580,0.14038086,-0.11236572,-0.95196533,-0.953125,-1.671875,-0.03125
1696292085624,0.1381836,-0.10455322,-0.95147705,-1.203125,-1.78125,0.15625
1696292085654,0.14941406,-0.11627197,-0.9480591,-1.046875,-1.703125,0.03125
1696292085699,0.14575195,-0.1116333,-0.9468384,-1.296875,-1.625,0.09375
1696292085729,0.14086914,-0.11383057,-0.9356079,-0.828125,-1.515625,0.109375
1696292085790,0.14257812,-0.10992432,-0.9495239,-0.90625,-1.84375,0.0625
1696292085805,0.14428711,-0.10601807,-0.9480591,-0.609375,-1.59375,0.203125
1696292085850,0.15673828,-0.11920166,-0.9512329,-1.203125,-1.53125,0.3125
1696292085893,0.14892578,-0.11090088,-0.9483032,-0.921875,-1.5,0.21875
1696292085927,0.1496582,-0.1194458,-0.9368286,-1.09375,-1.671875,0.0
1696292085972,0.15014648,-0.117248535,-0.94976807,-1.171875,-1.46875,0.109375
1696292086015,0.15063477,-0.11846924,-0.9417114,-0.84375,-1.296875,0.015625
1696292086044,0.15209961,-0.11212158,-0.9414673,-1.0,-1.5625,0.15625
1696292086104,0.15185547,-0.11529541,-0.94415283,-1.0,-1.6875,0.21875
1696292086120,0.1574707,-0.11846924,-0.94000244,-1.0625,-1.578125,0.0625
1696292086166,0.15771484,-0.11895752,-0.94903564,-1.109375,-1.375,0.140625
1696292086210,0.15722656,-0.12384033,-0.9487915,-1.078125,-1.671875,0.046875
1696292086239,0.15820312,-0.12310791,-0.95391846,-0.84375,-1.46875,0.171875
1696292086283,0.14819336,-0.120910645,-0.94659424,-0.890625,-1.453125,0.015625
1696292086314,0.15576172,-0.113098145,-0.94537354,-0.75,-1.453125,0.140625
1696292086359,0.15551758,-0.11798096,-0.9429321,-0.96875,-1.359375,0.0625
1696292086405,0.15722656,-0.12310791,-0.9397583,-1.03125,-1.234375,0.078125
1696292086435,0.15722656,-0.12017822,-0.94732666,-0.953125,-1.3125,0.125
1696292086480,0.15332031,-0.11773682,-0.9500122,-0.578125,-1.21875,0.203125
1696292086509,0.15673828,-0.12164307,-0.94659424,-0.78125,-1.078125,0.0
1696292086555,0.15600586,-0.116760254,-0.9463501,-1.078125,-1.28125,0.140625
1696292086599,0.16137695,-0.124816895,-0.93634033,-0.828125,-1.171875,0.203125
1696292086630,0.16430664,-0.12506104,-0.94415283,-1.015625,-1.09375,0.125
1696292086678,0.15795898,-0.120910645,-0.93341064,-0.609375,-1.109375,0.15625
1696292086719,0.15942383,-0.117248535,-0.9404907,-0.953125,-1.0625,0.171875
1696292086750,0.16064453,-0.12286377,-0.94366455,-0.875,-1.078125,0.203125
1696292086798,0.1574707,-0.12042236,-0.942688,-0.515625,-0.828125,0.125
1696292086825,0.16308594,-0.12359619,-0.9414673,-0.796875,-0.875,0.15625
1696292086870,0.15917969,-0.12701416,-0.94366455,-0.4375,-0.734375,0.140625
1696292086915,0.15405273,-0.1182251,-0.9492798,-0.59375,-0.671875,0.109375
1696292086944,0.15771484,-0.12359619,-0.9500122,-0.484375,-0.796875,0.203125
1696292086989,0.1586914,-0.1194458,-0.94610596,-0.265625,-0.4375,0.109375
1696292087020,0.15698242,-0.12261963,-0.94781494,-0.390625,-0.171875,0.09375
1696292087066,0.15283203,-0.12213135,-0.9417114,0.03125,0.171875,0.109375
1696292087109,0.15625,-0.12261963,-0.93878174,0.28125,0.53125,0.1875
1696292087139,0.14941406,-0.11871338,-0.94195557,0.703125,0.3125,0.3125
1696292087186,0.15283203,-0.117492676,-0.94317627,0.40625,0.171875,0.234375
1696292087214,0.14794922,-0.117248535,-0.9512329,-0.390625,-0.1875,0.09375
1696292087259,0.15014648,-0.11846924,-0.9534302,-0.359375,-0.421875,0.171875
1696292087304,0.15063477,-0.11505127,-0.9470825,0.125,0.0625,0.203125
1696292087334,0.1472168,-0.11798096,-0.9475708,-0.25,-0.25,0.125
1696292087380,0.14526367,-0.11260986,-0.93707275,-0.25,-0.28125,0.140625
1696292087425,0.14355469,-0.11260986,-0.93951416,-0.390625,-0.15625,0.21875
1696292087455,0.14233398,-0.11090088,-0.94659424,0.15625,-0.234375,0.1875
1696292087501,0.14257812,-0.109436035,-0.9429321,-0.296875,-0.625,0.234375
1696292087529,0.1472168,-0.10455322,-0.94610596,-0.546875,-0.65625,0.171875
1696292087574,0.13793945,-0.109436035,-0.94781494,-0.3125,-0.640625,0.234375
1696292087620,0.1472168,-0.113342285,-0.94659424,-0.296875,-0.578125,0.25
1696292087649,0.14331055,-0.10479736,-0.94976807,-0.46875,-0.375,0.21875
1696292087693,0.14208984,-0.109680176,-0.94366455,-0.28125,-0.40625,0.046875
1696292087723,0.14624023,-0.10601807,-0.94537354,-0.234375,-0.578125,0.15625
1696292087770,0.13867188,-0.11138916,-0.94854736,-0.515625,-0.71875,0.171875
1696292087816,0.13305664,-0.11187744,-0.93951416,-0.140625,-0.703125,0.359375
1696292087844,0.14038086,-0.10821533,-0.94732666,-0.703125,-0.984375,0.15625
1696292087891,0.13549805,-0.105285645,-0.9507446,-0.65625,-1.046875,0.203125
1696292087919,0.13623047,-0.10992432,-0.9434204,-1.015625,-0.78125,0.171875
1696292087965,0.13964844,-0.11065674,-0.9458618,-0.484375,-0.640625,0.1875
1696292088009,0.13842773,-0.10601807,-0.9458618,-0.484375,-0.609375,0.140625
1696292088039,0.13964844,-0.1038208,-0.9483032,-0.546875,-0.78125,0.0625
1696292088084,0.13647461,-0.10772705,-0.94732666,-0.484375,-0.65625,0.140625
1696292088128,0.13964844,-0.105041504,-0.94488525,-0.640625,-0.828125,0.140625
1696292088159,0.13720703,-0.11383057,-0.9468384,-0.5,-0.796875,0.140625
1696292088206,0.13696289,-0.11187744,-0.942688,-0.453125,-0.859375,0.0625
1696292088234,0.13378906,-0.105285645,-0.94415283,-0.5625,-0.65625,0.125
1696292088279,0.14282227,-0.10821533,-0.94976807,-0.390625,-0.640625,0.125
1696292088324,0.12988281,-0.10772705,-0.94415283,-0.515625,-0.734375,0.09375
1696292088353,0.12817383,-0.11016846,-0.94610596,-0.3125,-0.734375,0.125
1696292088400,0.13378906,-0.10723877,-0.9541626,-0.640625,-0.78125,0.03125
1696292088431,0.13793945,-0.1038208,-0.95147705,-0.59375,-0.890625,0.203125
1696292088492,0.13647461,-0.11114502,-0.9524536,-0.5,-0.734375,0.234375
1696292088520,0.1328125,-0.10870361,-0.9512329,-0.4375,-0.796875,0.140625
1696292088549,0.13354492,-0.10870361,-0.94610596,-0.296875,-0.625,0.203125
1696292088597,0.13867188,-0.10748291,-0.9534302,-0.875,-1.125,0.015625
1696292088641,0.13842773,-0.11065674,-0.9529419,-1.03125,-0.96875,0.140625
1696292088669,0.13183594,-0.10797119,-0.9480591,-0.59375,-0.953125,0.171875
1696292088714,0.13232422,-0.10845947,-0.9500122,-0.578125,-0.859375,0.109375
1696292088744,0.13745117,-0.11138916,-0.9463501,-0.53125,-0.78125,0.125
1696292088790,0.13354492,-0.109191895,-0.94732666,-0.671875,-0.9375,0.078125
1696292088834,0.13110352,-0.10626221,-0.9492798,-0.5,-1.046875,0.21875
1696292088864,0.13061523,-0.105285645,-0.9500122,-0.71875,-1.109375,0.21875
1696292088910,0.13549805,-0.10626221,-0.95440674,-0.71875,-1.03125,0.234375
1696292088939,0.1394043,-0.10479736,-0.9487915,-0.5625,-0.78125,0.078125
1696292088985,0.13500977,-0.10772705,-0.9529419,-0.640625,-0.921875,0.125
1696292089029,0.12988281,-0.101867676,-0.9390259,-0.65625,-1.3125,0.109375
1696292089059,0.140625,-0.10015869,-0.95147705,-0.65625,-1.328125,0.109375
1696292089106,0.13549805,-0.10723877,-0.9522095,-0.78125,-1.59375,0.171875
1696292089135,0.13549805,-0.105773926,-0.9517212,-0.703125,-1.609375,0.171875
1696292089179,0.13696289,-0.10797119,-0.9507446,-0.546875,-1.34375,0.203125
1696292089224,0.13647461,-0.112854004,-0.9495239,-0.65625,-1.453125,0.203125
1696292089254,0.13549805,-0.10015869,-0.9522095,-0.953125,-1.609375,0.078125
1696292089300,0.14160156,-0.1104126,-0.94537354,-1.03125,-1.625,0.171875
1696292089345,0.13964844,-0.10748291,-0.95025635,-0.921875,-1.46875,0.0625
1696292089374,0.13647461,-0.105773926,-0.9522095,-0.984375,-1.390625,0.078125
1696292089419,0.14404297,-0.10870361,-0.9475708,-1.078125,-1.546875,0.15625
1696292089449,0.13696289,-0.1116333,-0.94366455,-1.0625,-1.40625,0.09375
1696292089494,0.14624023,-0.11016846,-0.94781494,-0.75,-1.453125,0.09375
1696292089541,0.14013672,-0.11895752,-0.9505005,-0.78125,-1.46875,0.03125
1696292089569,0.13598633,-0.113342285,-0.942688,-0.8125,-1.265625,0.21875
1696292089614,0.14355469,-0.11016846,-0.94195557,-0.609375,-1.21875,0.046875
1696292089645,0.14355469,-0.10675049,-0.9524536,-0.796875,-1.296875,0.09375
1696292089691,0.13647461,-0.11090088,-0.94659424,-0.78125,-1.3125,-0.0625
1696292089734,0.14257812,-0.113098145,-0.94488525,-0.640625,-1.5,0.15625
1696292089765,0.14428711,-0.11114502,-0.9475708,-0.546875,-1.328125,0.109375
1696292089809,0.14746094,-0.11212158,-0.9475708,-0.53125,-1.234375,0.109375
1696292089839,0.14282227,-0.11187744,-0.9463501,-0.140625,-1.125,0.078125
1696292089884,0.14990234,-0.113098145,-0.94659424,-0.796875,-1.0,0.03125
1696292089931,0.14892578,-0.1104126,-0.9480591,-0.59375,-1.09375,0.1875
1696292089959,0.15551758,-0.11993408,-0.9312134,-0.671875,-1.453125,0.125
1696292090006,0.14746094,-0.10797119,-0.9517212,-0.84375,-1.03125,0.140625
1696292090050,0.14941406,-0.1116333,-0.94244385,-0.640625,-1.15625,0.03125
1696292090079,0.14501953,-0.113098145,-0.9500122,-0.734375,-1.15625,0.15625
1696292090126,0.14501953,-0.113586426,-0.94317627,-0.484375,-0.984375,0.078125
1696292090154,0.14453125,-0.11407471,-0.9397583,-0.703125,-1.4375,0.1875
1696292090199,0.15136719,-0.112854004,-0.9512329,-1.25,-1.53125,0.1875
1696292090260,0.15307617,-0.11505127,-0.954895,-1.328125,-1.5,0.171875
1696292090275,0.14501953,-0.11505127,-0.9463501,-0.71875,-1.296875,0.03125
1696292090319,0.14355469,-0.11773682,-0.94537354,-0.84375,-1.375,0.125
1696292090350,0.15209961,-0.117248535,-0.9475708,-0.6875,-1.34375,0.09375
1696292090394,0.15014648,-0.11602783,-0.94781494,-0.921875,-1.296875,0.15625
1696292090440,0.15551758,-0.11383057,-0.9439087,-0.90625,-1.234375,0.078125
1696292090470,0.1496582,-0.11920166,-0.944397,-0.828125,-1.390625,-0.046875
1696292090515,0.15063477,-0.113586426,-0.94659424,-0.421875,-1.375,0.140625
1696292090560,0.15185547,-0.11871338,-0.94537354,-0.734375,-0.921875,-0.1875
1696292090589,0.14526367,-0.113098145,-0.95318604,-1.046875,-1.03125,0.0625
1696292090636,0.14624023,-0.11798096,-0.94000244,-0.546875,-1.171875,0.140625
1696292090680,0.15454102,-0.11651611,-0.9495239,-0.71875,-1.015625,0.09375
1696292090709,0.15283203,-0.11773682,-0.9385376,-0.8125,-1.28125,0.171875
1696292090754,0.15185547,-0.11114502,-0.94854736,-0.875,-0.96875,0.125
1696292090784,0.15209961,-0.11651611,-0.9402466,-0.734375,-1.09375,0.109375
1696292090829,0.15258789,-0.120666504,-0.9365845,-0.40625,-0.875,0.09375
1696292090859,0.15356445,-0.11480713,-0.9468384,-0.765625,-0.96875,0.25
1696292090905,0.1496582,-0.11529541,-0.9546509,-0.53125,-0.796875,0.15625
1696292090950,0.14916992,-0.11431885,-0.95025635,-0.46875,-0.53125,0.046875
1696292090980,0.15478516,-0.11529541,-0.93927,-0.328125,-0.453125,0.203125
1696292091027,0.15356445,-0.1104126,-0.9446411,-0.453125,0.015625,0.046875
1696292091055,0.1550293,-0.1182251,-0.9312134,0.171875,-0.078125,0.171875
1696292091098,0.14916992,-0.11138916,-0.9356079,0.234375,-0.265625,0.203125
1696292091145,0.1484375,-0.11553955,-0.9507446,-0.234375,-0.546875,-0.078125
1696292091174,0.1484375,-0.1116333,-0.94415283,-0.09375,-0.5,0.171875
1696292091220,0.14697266,-0.11480713,-0.94659424,-0.0625,-0.21875,0.265625
1696292091248,0.1496582,-0.11212158,-0.9468384,-0.515625,-0.234375,0.140625
1696292091295,0.1430664,-0.117004395,-0.94610596,-0.609375,-0.703125,0.203125
1696292091342,0.13745117,-0.10821533,-0.94610596,-0.328125,-0.234375,0.296875
1696292091369,0.1459961,-0.10748291,-0.9446411,-0.125,-0.359375,0.171875
1696292091415,0.14477539,-0.105041504,-0.9483032,-0.53125,-0.453125,0.171875
1696292091459,0.13256836,-0.10675049,-0.9480591,-0.578125,-0.46875,0.203125
1696292091489,0.13964844,-0.10723877,-0.95806885,-0.375,-0.546875,0.09375
1696292091534,0.13891602,-0.10870361,-0.94732666,-0.46875,-0.5,0.21875
1696292091564,0.14111328,-0.10992432,-0.95025635,-0.40625,-0.484375,0.125
1696292091610,0.1381836,-0.10748291,-0.95147705,-0.359375,-0.59375,0.203125
1696292091654,0.13720703,-0.112854004,-0.9500122,-0.484375,-0.4375,0.078125
1696292091684,0.14404297,-0.101623535,-0.942688,-0.234375,-0.4375,0.140625
1696292091730,0.13964844,-0.108947754,-0.95196533,-0.625,-0.78125,0.171875
1696292091759,0.1352539,-0.10626221,-0.9456177,-0.671875,-0.65625,0.171875
1696292091804,0.13696289,-0.105529785,-0.9517212,-0.5,-0.640625,0.15625
1696292091849,0.13696289,-0.10284424,-0.9495239,-0.203125,-0.734375,0.171875
1696292091881,0.13647461,-0.1116333,-0.9458618,-0.21875,-0.546875,0.109375
1696292091927,0.14111328,-0.10675049,-0.9536743,-0.65625,-1.15625,0.1875
1696292091969,0.13549805,-0.10357666,-0.95025635,-1.203125,-1.671875,0.21875
1696292091999,0.14038086,-0.1116333,-0.9512329,-0.640625,-0.890625,0.09375
1696292092046,0.13623047,-0.105041504,-0.94903564,-0.34375,-0.484375,0.125
1696292092074,0.13745117,-0.109680176,-0.94537354,-0.59375,-0.8125,0.171875
1696292092119,0.13500977,-0.105529785,-0.94537354,-0.625,-0.546875,0.125
1696292092165,0.13574219,-0.10845947,-0.9480591,-0.640625,-0.546875,0.125
1696292092195,0.1352539,-0.105773926,-0.9463501,-0.421875,-0.828125,0.125
1696292092239,0.13232422,-0.10845947,-0.9534302,-0.59375,-0.734375,0.015625
1696292092270,0.13134766,-0.10748291,-0.95025635,-0.375,-0.296875,0.03125
1696292092316,0.13134766,-0.10797119,-0.95391846,-0.34375,-0.46875,0.109375
1696292092360,0.13793945,-0.11065674,-0.94659424,-0.609375,-0.5,0.0625
1696292092389,0.13232422,-0.10626221,-0.94903564,-0.484375,-0.625,0.03125
1696292092433,0.12963867,-0.097717285,-0.9463501,-0.5625,-0.875,0.078125
1696292092464,0.13427734,-0.10748291,-0.9512329,-0.421875,-0.8125,0.171875
1696292092509,0.1262207,-0.105773926,-0.94659424,-0.28125,-0.75,0.140625
1696292092555,0.1340332,-0.11187744,-0.95025635,-0.5625,-0.96875,0.140625
1696292092584,0.1352539,-0.109191895,-0.95318604,-0.484375,-0.890625,0.15625
1696292092630,0.13183594,-0.10430908,-0.94903564,-0.796875,-1.109375,-0.078125
1696292092676,0.1274414,-0.10650635,-0.9505005,-0.625,-0.96875,0.1875
1696292092704,0.12988281,-0.113342285,-0.95269775,-0.546875,-1.203125,0.0625
1696292092750,0.13647461,-0.09844971,-0.9463501,-0.671875,-1.203125,0.109375
1696292092780,0.13134766,-0.10650635,-0.9480591,-0.53125,-1.671875,0.109375
1696292092825,0.12939453,-0.11016846,-0.9507446,-0.953125,-1.640625,0.0625
1696292092869,0.13671875,-0.10650635,-0.94781494,-0.59375,-1.796875,0.078125
1696292092899,0.1352539,-0.10308838,-0.9475708,-1.25,-1.609375,0.125
1696292092946,0.14160156,-0.10455322,-0.9429321,-0.6875,-1.59375,0.109375
1696292092973,0.13916016,-0.10772705,-0.9470825,-0.9375,-1.625,0.25
1696292093020,0.14453125,-0.105285645,-0.9512329,-0.890625,-1.71875,0.09375
1696292093065,0.13720703,-0.10845947,-0.9475708,-0.828125,-1.765625,0.140625
1696292093094,0.1394043,-0.10406494,-0.94073486,-1.375,-2.0625,0.109375
1696292093139,0.14135742,-0.1104126,-0.9434204,-1.3125,-2.125,0.15625
1696292093169,0.1472168,-0.11407471,-0.95147705,-1.390625,-1.875,0.1875
1696292093215,0.14331055,-0.10992432,-0.9421997,-0.703125,-1.6875,0.046875
1696292093258,0.14257812,-0.11016846,-0.9468384,-0.953125,-1.625,0.15625
1696292093289,0.15136719,-0.10992432,-0.94732666,-1.515625,-1.734375,0.1875
1696292093335,0.14697266,-0.113586426,-0.95635986,-1.390625,-1.75,0.125
1696292093381,0.14770508,-0.113342285,-0.94659424,-1.25,-1.4375,0.125
1696292093410,0.14916992,-0.11431885,-0.9500122,-0.953125,-1.609375,0.265625
1696292093458,0.14819336,-0.113586426,-0.9483032,-1.109375,-1.328125,0.015625
1696292093484,0.1496582,-0.11553955,-0.942688,-1.046875,-1.484375,0.015625
1696292093531,0.1496582,-0.11993408,-0.94610596,-0.71875,-1.53125,0.15625
1696292093575,0.1538086,-0.11114502,-0.93927,-0.984375,-1.65625,0.140625
1696292093605,0.15234375,-0.1182251,-0.9480591,-0.8125,-1.5,0.046875
1696292093652,0.14746094,-0.11456299,-0.94317627,-0.6875,-1.359375,0.0625
1696292093679,0.14794922,-0.1116333,-0.9475708,-0.890625,-1.28125,0.203125
1696292093725,0.15185547,-0.121398926,-0.9397583,-0.8125,-1.3125,0.046875
1696292093769,0.1586914,-0.11065674,-0.94000244,-1.0625,-1.40625,0.078125
1696292093799,0.15429688,-0.11383057,-0.94317627,-0.75,-1.28125,0.09375
1696292093844,0.14916992,-0.12017822,-0.944397,-0.578125,-1.25,0.109375
1696292093875,0.15063477,-0.112854004,-0.9475708,-0.921875,-1.53125,0.171875
1696292093919,0.15307617,-0.117004395,-0.94537354,-0.875,-1.375,0.1875
1696292093966,0.16308594,-0.11578369,-0.93170166,-1.3125,-1.71875,0.03125
1696292093994,0.16186523,-0.12335205,-0.95391846,-1.296875,-1.453125,0.09375
1696292094041,0.15527344,-0.11895752,-0.94732666,-1.125,-1.15625,0.078125
1696292094085,0.15673828,-0.11798096,-0.9463501,-0.78125,-1.390625,0.15625
1696292094115,0.15942383,-0.11505127,-0.9434204,-0.765625,-1.21875,0.21875
1696292094160,0.15625,-0.12310791,-0.9351196,-0.84375,-0.890625,0.15625
1696292094189,0.15698242,-0.121398926,-0.94854736,-0.59375,-0.953125,0.21875
1696292094234,0.15820312,-0.1194458,-0.9439087,-0.703125,-0.828125,0.125
1696292094279,0.16381836,-0.11505127,-0.9480591,-0.515625,-0.84375,0.03125
1696292094308,0.15356445,-0.12384033,-0.94317627,-0.765625,-0.828125,0.296875
1696292094353,0.1586914,-0.11968994,-0.9390259,-0.5625,-0.75,0.15625
1696292094400,0.15551758,-0.11383057,-0.9439087,-0.703125,-0.734375,0.125
1696292094430,0.1574707,-0.12432861,-0.9456177,-0.609375,-0.671875,0.234375
1696292094474,0.15771484,-0.12286377,-0.9463501,-0.5,-0.5,0.078125
1696292094505,0.15185547,-0.12042236,-0.956604,-0.1875,-0.21875,0.078125
1696292094550,0.1508789,-0.11993408,-0.9356079,0.53125,0.375,0.125
1696292094597,0.15112305,-0.116760254,-0.9468384,0.15625,-0.03125,0.265625
1696292094626,0.14941406,-0.116760254,-0.93536377,-0.25,0.15625,0.03125
1696292094670,0.14477539,-0.11260986,-0.94073486,0.390625,0.546875,0.140625
1696292094699,0.14233398,-0.11627197,-0.9487915,0.296875,0.0625,0.15625
1696292094746,0.14990234,-0.11383057,-0.9404907,0.03125,0.015625,0.15625
1696292094789,0.14794922,-0.109680176,-0.9470825,-0.296875,-0.375,0.15625
1696292094819,0.14331055,-0.1116333,-0.93634033,0.046875,-0.09375,0.09375
1696292094865,0.14916992,-0.11187744,-0.95513916,-0.734375,0.0625,0.1875
1696292094941,0.14428711,-0.11456299,-0.94317627,-1.03125,0.09375,0.203125
1696292094944,0.13793945,-0.112854004,-0.9468384,-0.578125,-0.390625,0.078125
1696292094985,0.13549805,-0.11260986,-0.94781494,-0.796875,-0.359375,0.234375
1696292095014,0.13793945,-0.10870361,-0.93829346,-0.234375,-0.640625,0.171875
1696292095060,0.14428711,-0.10992432,-0.9451294,-0.515625,-0.671875,0.203125
1696292095089,0.140625,-0.11236572,-0.94122314,-0.5625,-0.96875,0.21875
1696292095134,0.13647461,-0.11431885,-0.94854736,-0.609375,-0.796875,0.203125
1696292095180,0.13720703,-0.11260986,-0.944397,-0.171875,-0.65625,0.125
1696292095209,0.13256836,-0.11480713,-0.95391846,-0.6875,-0.75,0.265625
1696292095254,0.13867188,-0.11383057,-0.944397,-0.09375,-0.796875,0.140625
1696292095299,0.14453125,-0.105773926,-0.944397,-0.84375,-0.9375,0.359375
1696292095329,0.13647461,-0.1116333,-0.9475708,-0.5,-0.71875,-0.015625
1696292095376,0.13916016,-0.10870361,-0.9468384,-0.453125,-0.703125,0.171875
1696292095405,0.13793945,-0.105773926,-0.9463501,-0.4375,-0.796875,0.140625
1696292095449,0.1418457,-0.10723877,-0.9456177,-0.375,-0.78125,0.234375
1696292095495,0.13256836,-0.10748291,-0.9483032,-0.75,-0.71875,0.21875
1696292095526,0.14160156,-0.109680176,-0.95098877,-0.625,-0.765625,0.1875
1696292095570,0.13793945,-0.109436035,-0.94610596,-0.5625,-0.734375,0.15625
1696292095600,0.13989258,-0.10308838,-0.94732666,-0.484375,-0.78125,0.25
1696292095645,0.12890625,-0.11016846,-0.94610596,-0.21875,-0.484375,0.265625
1696292095691,0.13330078,-0.1026001,-0.95147705,-0.484375,-0.640625,0.1875
1696292095720,0.1352539,-0.10601807,-0.94976807,-0.375,-0.59375,0.15625
1696292095766,0.13769531,-0.105041504,-0.9505005,-0.53125,-0.96875,0.09375
1696292095794,0.1340332,-0.11114502,-0.94976807,-0.5,-0.84375,0.140625
1696292095841,0.13549805,-0.10797119,-0.95269775,-0.53125,-0.796875,0.21875
1696292095900,0.13720703,-0.11187744,-0.9524536,-0.25,-0.78125,0.109375
1696292095913,0.13500977,-0.10772705,-0.93951416,-0.09375,-0.78125,0.21875
1696292095960,0.13061523,-0.105285645,-0.9507446,-0.765625,-1.1875,0.15625
1696292096036,0.1328125,-0.101867676,-0.9483032,-0.890625,-0.84375,0.125
1696292096041,0.13305664,-0.11187744,-0.942688,-0.484375,-0.765625,0.109375
1696292096081,0.12695312,-0.109436035,-0.94659424,-0.53125,-0.984375,0.15625
1696292096109,0.13256836,-0.10772705,-0.94659424,-0.5,-0.984375,0.21875
1696292096156,0.13208008,-0.1038208,-0.9446411,-0.46875,-1.1875,0.265625
1696292096200,0.13452148,-0.105285645,-0.9378052,-0.359375,-1.296875,0.125
1696292096229,0.13842773,-0.10992432,-0.95562744,-0.90625,-1.640625,0.25
1696292096274,0.13696289,-0.109191895,-0.95147705,-0.828125,-1.296875,0.21875
1696292096319,0.13842773,-0.10845947,-0.9495239,-0.421875,-1.140625,0.1875
1696292096350,0.12890625,-0.10821533,-0.9505005,-0.515625,-1.328125,0.125
1696292096396,0.13793945,-0.101379395,-0.9487915,-0.9375,-1.640625,0.09375
1696292096424,0.14086914,-0.10675049,-0.95025635,-0.953125,-1.53125,0.046875
1696292096469,0.1394043,-0.10479736,-0.9446411,-1.0,-1.546875,0.203125
1696292096500,0.13305664,-0.113342285,-0.9507446,-0.78125,-1.578125,0.203125
1696292096544,0.14135742,-0.11065674,-0.94732666,-0.625,-1.671875,0.1875
1696292096592,0.14575195,-0.10626221,-0.95391846,-1.015625,-1.484375,0.109375
1696292096619,0.14257812,-0.105529785,-0.94317627,-0.703125,-1.328125,0.125
1696292096666,0.14355469,-0.11407471,-0.9434204,-1.0,-1.5,0.046875
1696292096711,0.14404297,-0.11383057,-0.9458618,-0.8125,-1.4375,0.171875
1696292096739,0.14501953,-0.10675049,-0.9439087,-0.90625,-1.34375,-0.015625
1696292096786,0.14331055,-0.10870361,-0.94903564,-0.796875,-1.265625,0.15625
1696292096820,0.14013672,-0.105041504,-0.93951416,-0.859375,-1.296875,0.09375
1696292096858,0.1430664,-0.113342285,-0.94537354,-1.015625,-1.546875,0.21875
1696292096904,0.1459961,-0.11505127,-0.9517212,-0.953125,-1.5625,0.15625
1696292096934,0.14453125,-0.113342285,-0.94537354,-0.921875,-1.5,0.078125
1696292096981,0.14697266,-0.10992432,-0.9512329,-0.515625,-1.265625,0.203125
1696292097009,0.14428711,-0.11114502,-0.9458618,-0.796875,-1.390625,0.078125
1696292097055,0.15283203,-0.116760254,-0.942688,-0.890625,-1.265625,0.140625
1696292097099,0.14794922,-0.11407471,-0.9495239,-0.796875,-1.28125,0.125
1696292097129,0.15209961,-0.11798096,-0.94537354,-0.875,-1.359375,0.15625
1696292097176,0.14648438,-0.117492676,-0.9492798,-0.703125,-1.265625,0.1875
1696292097220,0.15039062,-0.113586426,-0.9414673,-0.40625,-1.171875,0.078125
1696292097249,0.14770508,-0.10772705,-0.9522095,-0.78125,-1.375,0.015625
1696292097295,0.14868164,-0.11383057,-0.9446411,-0.46875,-1.25,0.09375
1696292097325,0.14868164,-0.11505127,-0.9385376,-1.046875,-1.484375,-0.03125
1696292097370,0.15112305,-0.11871338,-0.9475708,-0.9375,-1.296875,0.203125
1696292097416,0.15283203,-0.11212158,-0.93634033,-0.859375,-1.234375,0.125
1696292097444,0.14624023,-0.121154785,-0.9458618,-0.890625,-1.25,0.09375
1696292097489,0.15478516,-0.11651611,-0.9456177,-0.8125,-1.15625,0.015625
1696292097520,0.1508789,-0.11407471,-0.94195557,-0.953125,-1.203125,0.0625
1696292097564,0.1484375,-0.11407471,-0.9492798,-0.859375,-1.296875,0.203125
1696292097609,0.15258789,-0.11529541,-0.9458618,-0.90625,-1.234375,0.09375
1696292097639,0.15405273,-0.11407471,-0.9507446,-0.71875,-1.09375,0.09375
1696292097685,0.15478516,-0.11846924,-0.94415283,-0.625,-0.9375,0.25
1696292097714,0.15429688,-0.1116333,-0.94244385,-0.71875,-1.046875,-0.03125
1696292097759,0.15454102,-0.11651611,-0.9356079,-0.5625,-0.9375,0.125
1696292097805,0.15185547,-0.117492676,-0.94732666,-0.640625,-0.96875,0.109375
1696292097834,0.15161133,-0.11578369,-0.94854736,-0.609375,-1.03125,0.140625
1696292097879,0.15991211,-0.117492676,-0.94781494,-0.421875,-1.078125,0.171875
1696292097954,0.15844727,-0.11627197,-0.9512329,-0.625,-1.03125,0.09375
1696292097959,0.15332031,-0.11920166,-0.94659424,-0.671875,-1.125,0.1875
1696292098000,0.15209961,-0.1182251,-0.9348755,-1.125,-1.578125,0.140625
1696292098030,0.16015625,-0.121154785,-0.9541626,-1.1875,-1.546875,0.25
1696292098075,0.15649414,-0.120910645,-0.94122314,-0.796875,-0.953125,0.21875
1696292098119,0.15917969,-0.11895752,-0.94976807,-0.859375,-0.515625,0.171875
1696292098149,0.15576172,-0.12164307,-0.942688,-0.578125,0.015625,0.0
1696292098193,0.15478516,-0.11871338,-0.93878174,-0.046875,0.359375,0.0625
1696292098224,0.15234375,-0.116760254,-0.94537354,0.375,0.390625,0.1875
1696292098270,0.15209961,-0.11505127,-0.94488525,0.203125,0.234375,0.203125
1696292098314,0.15698242,-0.11260986,-0.94781494,0.359375,-0.109375,0.125
1696292098344,0.14794922,-0.10992432,-0.9541626,-0.359375,-0.375,0.125
1696292098404,0.14672852,-0.10797119,-0.9468384,-0.234375,-0.46875,0.140625
1696292098420,0.1418457,-0.112854004,-0.94244385,-0.328125,-0.1875,0.171875
1696292098466,0.1508789,-0.11090088,-0.93878174,-0.421875,-0.5,0.125
1696292098510,0.14648438,-0.108947754,-0.9458618,-0.1875,-0.390625,0.328125
1696292098539,0.14331055,-0.11212158,-0.9475708,0.046875,-0.4375,0.21875
1696292098586,0.1394043,-0.11602783,-0.9380493,-0.265625,-0.171875,0.234375
1696292098661,0.14331055,-0.109436035,-0.9492798,-0.5,-0.390625,0.1875
1696292098666,0.13745117,-0.10797119,-0.94976807,-0.734375,-0.578125,0.109375
1696292098704,0.13720703,-0.11016846,-0.94854736,-0.34375,-0.4375,0.03125
1696292098736,0.14355469,-0.11090088,-0.9456177,-0.359375,-0.296875,0.265625
1696292098780,0.14257812,-0.10772705,-0.94854736,-0.546875,-0.203125,0.171875
1696292098825,0.13623047,-0.11016846,-0.94488525,-0.546875,-0.34375,0.359375
1696292098853,0.14013672,-0.11065674,-0.9468384,-0.484375,-0.59375,0.109375
1696292098900,0.13696289,-0.11114502,-0.95318604,-0.328125,-0.71875,0.09375
1696292098929,0.13720703,-0.112854004,-0.9480591,-0.53125,-0.78125,0.203125
1696292098976,0.13989258,-0.10723877,-0.9483032,-0.234375,-0.671875,0.1875
1696292099021,0.13867188,-0.10699463,-0.9578247,-0.671875,-0.828125,0.203125
1696292099049,0.1352539,-0.10479736,-0.9429321,-0.28125,-0.875,0.1875
1696292099096,0.13574219,-0.105529785,-0.95025635,-0.625,-0.765625,0.09375
1696292099141,0.13427734,-0.10406494,-0.9434204,-0.5625,-0.859375,0.125
1696292099169,0.1340332,-0.1104126,-0.94781494,-0.46875,-0.71875,0.125
1696292099214,0.13134766,-0.105285645,-0.9495239,-0.234375,-0.4375,0.25
1696292099244,0.13623047,-0.10626221,-0.95196533,-0.75,-0.578125,0.140625
1696292099291,0.13500977,-0.105285645,-0.95318604,-0.5,-0.9375,0.046875
1696292099335,0.13305664,-0.11407471,-0.94366455,-0.953125,-1.046875,0.046875
1696292099364,0.13061523,-0.105773926,-0.9456177,-0.53125,-0.71875,0.140625
1696292099410,0.12915039,-0.108947754,-0.9458618,-0.46875,-0.8125,0.28125
1696292099439,0.13696289,-0.113098145,-0.94610596,-0.640625,-0.875,0.125
1696292099486,0.12915039,-0.10821533,-0.9446411,-0.59375,-0.921875,0.046875
1696292099529,0.13891602,-0.1116333,-0.9458618,-0.65625,-0.828125,0.109375
1696292099560,0.1274414,-0.112854004,-0.9429321,-0.4375,-0.90625,0.140625
1696292099604,0.12817383,-0.10235596,-0.94781494,-0.5,-0.96875,0.203125
1696292099635,0.13476562,-0.10650635,-0.9480591,-0.375,-0.859375,0.046875
1696292099679,0.13500977,-0.10211182,-0.9512329,-0.484375,-0.921875,0.234375
1696292099725,0.13671875,-0.105773926,-0.9463501,-0.203125,-0.9375,0.140625
1696292099756,0.13378906,-0.105285645,-0.9475708,-0.5625,-1.0625,0.15625
1696292099799,0.13745117,-0.105041504,-0.9505005,-0.734375,-1.171875,0.1875
1696292099845,0.12768555,-0.11505127,-0.9507446,-0.703125,-1.375,0.078125
1696292099875,0.13549805,-0.10235596,-0.94537354,-0.3125,-1.25,0.109375
1696292099920,0.13745117,-0.10992432,-0.96099854,-0.859375,-1.71875,0.15625
1696292099949,0.13134766,-0.11016846,-0.94244385,-0.4375,-1.5,0.09375
1696292099997,0.13647461,-0.10699463,-0.9480591,-1.34375,-1.6875,0.21875
1696292100041,0.13500977,-0.109680176,-0.9495239,-0.875,-1.578125,0.078125
1696292100070,0.13867188,-0.101867676,-0.94732666,-0.890625,-1.59375,0.125
1696292100113,0.14135742,-0.108947754,-0.95147705,-0.765625,-1.640625,0.125
1696292100145,0.14013672,-0.113586426,-0.9505005,-0.9375,-1.5625,0.125
1696292100189,0.13549805,-0.11114502,-0.94537354,-1.3125,-1.53125,0.1875
1696292100234,0.14233398,-0.113098145,-0.9483032,-0.921875,-1.421875,0.140625
1696292100265,0.1484375,-0.11260986,-0.94244385,-0.859375,-1.265625,0.15625
1696292100309,0.14233398,-0.11529541,-0.94854736,-0.53125,-1.390625,0.109375
1696292100340,0.13769531,-0.11065674,-0.9517212,-0.890625,-1.453125,0.046875
1696292100384,0.14697266,-0.12042236,-0.9463501,-0.765625,-1.5,0.09375
1696292100428,0.14404297,-0.10821533,-0.9414673,-0.671875,-1.40625,0.078125
1696292100459,0.14282227,-0.11065674,-0.942688,-0.90625,-1.625,0.125
1696292100506,0.14355469,-0.113342285,-0.9522095,-1.0625,-1.734375,0.15625
1696292100551,0.14331055,-0.11798096,-0.9487915,-0.484375,-1.53125,0.140625
1696292100579,0.14794922,-0.11431885,-0.95269775,-0.625,-1.453125,0.15625
1696292100627,0.15161133,-0.11383057,-0.9470825,-0.71875,-1.15625,0.109375
1696292100655,0.14550781,-0.10992432,-0.940979,-1.0625,-1.359375,0.140625
1696292100701,0.14746094,-0.117004395,-0.9483032,-0.859375,-1.25,0.078125
1696292100746,0.14916992,-0.1182251,-0.94415283,-0.90625,-1.171875,0.09375
1696292100773,0.15161133,-0.10992432,-0.94244385,-0.75,-1.03125,0.15625
1696292100820,0.15014648,-0.10650635,-0.9446411,-0.75,-1.046875,0.171875
1696292100849,0.1484375,-0.10723877,-0.9421997,-1.125,-1.265625,0.109375
1696292100895,0.14916992,-0.11212158,-0.9500122,-0.546875,-1.140625,0.1875
1696292100939,0.15063477,-0.11529541,-0.9522095,-0.828125,-0.90625,0.03125
1696292100969,0.14916992,-0.11553955,-0.9456177,-0.828125,-0.9375,0.046875
1696292101016,0.14794922,-0.11505127,-0.94854736,-0.796875,-0.875,0.203125
1696292101043,0.15112305,-0.11553955,-0.9480591,-0.421875,-0.828125,0.15625
1696292101091,0.14501953,-0.109436035,-0.94244385,-0.75,-0.828125,0.09375
1696292101134,0.14038086,-0.11187744,-0.9434204,-0.609375,-0.8125,0.109375
1696292101166,0.15209961,-0.11236572,-0.9463501,-0.4375,-0.84375,0.203125
1696292101213,0.15014648,-0.11236572,-0.9492798,-0.171875,-0.78125,0.0625
1696292101255,0.1459961,-0.113586426,-0.94415283,-0.78125,-0.78125,0.140625
1696292101285,0.14428711,-0.11456299,-0.9483032,-0.75,-1.15625,0.125
1696292101329,0.14819336,-0.113098145,-0.9360962,-0.6875,-1.265625,0.203125
1696292101359,0.14624023,-0.117004395,-0.94732666,-0.6875,-1.0,0.078125
1696292101404,0.14916992,-0.10797119,-0.94854736,-0.53125,-1.34375,0.234375
1696292101449,0.15405273,-0.11187744,-0.9470825,-0.875,-1.5625,0.15625
1696292101480,0.14453125,-0.11065674,-0.94122314,-0.78125,-1.25,0.140625
1696292101524,0.15063477,-0.11895752,-0.9365845,-0.578125,-1.28125,0.125
1696292101555,0.15454102,-0.112854004,-0.95318604,-0.953125,-1.0625,0.234375
1696292101599,0.14941406,-0.117248535,-0.944397,-0.671875,-0.71875,0.046875
1696292101645,0.15161133,-0.11407471,-0.95025635,-0.421875,-0.25,0.09375
1696292101674,0.15161133,-0.108947754,-0.9458618,-0.359375,-0.15625,0.15625
1696292101737,0.14746094,-0.11627197,-0.9404907,-0.078125,0.03125,0.09375
1696292101749,0.14379883,-0.11505127,-0.9365845,-0.125,-0.078125,0.09375
1696292101793,0.14746094,-0.10992432,-0.9456177,-0.125,-0.03125,0.21875
1696292101840,0.14355469,-0.11187744,-0.94854736,-0.3125,-0.265625,0.171875
1696292101869,0.14331055,-0.11236572,-0.9500122,-0.328125,-0.25,0.09375
1696292101916,0.13916016,-0.10821533,-0.94781494,-0.046875,0.21875,0.28125
1696292101976,0.1418457,-0.10748291,-0.95147705,-0.6875,-0.671875,0.109375
1696292101989,0.14086914,-0.10626221,-0.95025635,-0.6875,-0.875,0.265625
1696292102035,0.13671875,-0.1116333,-0.9468384,-0.609375,-0.46875,0.234375
1696292102065,0.13671875,-0.10675049,-0.94415283,-0.296875,-0.4375,0.359375
1696292102109,0.13671875,-0.09991455,-0.9434204,-0.40625,-0.53125,0.109375
1696292102154,0.13964844,-0.10870361,-0.9512329,-0.671875,-0.640625,0.078125
1696292102184,0.14501953,-0.11065674,-0.94317627,-0.4375,-0.5,0.1875
1696292102230,0.1381836,-0.105773926,-0.94488525,-0.53125,-0.640625,0.203125
1696292102260,0.1328125,-0.11114502,-0.94854736,-0.359375,-0.65625,0.0
1696292102304,0.13891602,-0.11090088,-0.9421997,-0.1875,-0.59375,0.09375
1696292102350,0.13842773,-0.105773926,-0.95098877,-0.46875,-0.59375,0.125
1696292102380,0.13696289,-0.11090088,-0.94610596,-0.40625,-0.546875,0.265625
1696292102426,0.13745117,-0.109680176,-0.9487915,-0.625,-0.703125,0.078125
1696292102469,0.13623047,-0.105041504,-0.94122314,-0.546875,-0.734375,0.15625
1696292102499,0.13452148,-0.105529785,-0.95025635,-0.671875,-0.78125,0.109375
1696292102547,0.13354492,-0.10650635,-0.9492798,-0.546875,-0.921875,0.15625
1696292102574,0.13208008,-0.11236572,-0.9475708,-0.140625,-0.609375,0.203125
1696292102620,0.13671875,-0.10430908,-0.9507446,-0.78125,-0.953125,0.15625
1696292102665,0.13183594,-0.10455322,-0.9590454,-1.125,-1.015625,0.046875
1696292102695,0.13354492,-0.112854004,-0.95196533,-0.390625,-0.734375,0.09375
1696292102740,0.12963867,-0.109680176,-0.9507446,-0.625,-0.796875,0.125
1696292102769,0.14086914,-0.10797119,-0.94610596,-0.734375,-0.8125,0.0625
1696292102816,0.13256836,-0.10723877,-0.95318604,-0.71875,-0.890625,0.15625
1696292102859,0.1303711,-0.11138916,-0.95098877,-0.4375,-0.734375,0.21875
1696292102889,0.1315918,-0.10601807,-0.9495239,-0.734375,-0.9375,0.125
1696292102936,0.12548828,-0.109436035,-0.94976807,-0.6875,-1.0,0.109375
1696292102964,0.13500977,-0.10626221,-0.94488525,-0.390625,-0.734375,0.03125
1696292103010,0.12841797,-0.108947754,-0.95513916,-0.65625,-0.90625,0.125
1696292103054,0.1274414,-0.10723877,-0.942688,-0.453125,-0.828125,0.109375
1696292103084,0.13427734,-0.11090088,-0.9463501,-0.5625,-0.96875,0.28125
1696292103130,0.1328125,-0.10723877,-0.93878174,-0.53125,-1.171875,0.21875
1696292103175,0.13232422,-0.10772705,-0.95098877,-0.609375,-1.1875,0.125
1696292103204,0.13330078,-0.1038208,-0.94781494,-0.546875,-1.34375,0.203125
1696292103251,0.13549805,-0.10675049,-0.942688,-0.1875,-1.046875,0.171875
1696292103279,0.13012695,-0.10089111,-0.9487915,-0.859375,-1.671875,0.0625
1696292103326,0.13500977,-0.10699463,-0.94854736,-1.140625,-1.546875,0.078125
1696292103369,0.13598633,-0.108947754,-0.9470825,-0.5625,-1.390625,0.1875
1696292103399,0.13378906,-0.109436035,-0.94781494,-0.90625,-1.328125,0.09375
1696292103444,0.12915039,-0.10308838,-0.94610596,-0.796875,-1.40625,0.140625
1696292103474,0.13574219,-0.10601807,-0.94732666,-0.890625,-1.421875,0.21875
1696292103520,0.13623047,-0.10626221,-0.9524536,-0.71875,-1.46875,0.140625
1696292103566,0.1352539,-0.10723877,-0.9517212,-1.140625,-1.5625,0.125
1696292103594,0.13745117,-0.10699463,-0.9505005,-0.8125,-1.5,0.0625
1696292103641,0.1472168,-0.1116333,-0.944397,-0.609375,-1.421875,0.109375
1696292103685,0.14550781,-0.10699463,-0.94732666,-0.875,-1.296875,0.15625
1696292103730,0.13989258,-0.109191895,-0.9451294,-0.59375,-1.421875,0.09375
1696292103760,0.13989258,-0.109436035,-0.9492798,-0.8125,-1.5,0.203125
1696292103789,0.1394043,-0.11407471,-0.9492798,-0.84375,-1.625,-0.046875
1696292103836,0.14233398,-0.1104126,-0.9492798,-1.078125,-1.453125,0.125
1696292103879,0.1430664,-0.11187744,-0.9553833,-0.734375,-1.578125,0.0625
1696292103909,0.14794922,-0.1104126,-0.9404907,-0.515625,-1.046875,0.09375
1696292103955,0.14648438,-0.11260986,-0.9541626,-1.109375,-1.484375,0.078125
1696292103984,0.14868164,-0.113586426,-0.940979,-0.875,-1.421875,0.0625
1696292104032,0.14697266,-0.12042236,-0.95440674,-0.6875,-1.40625,0.171875
1696292104076,0.14575195,-0.11114502,-0.94610596,-0.75,-1.28125,-0.078125
1696292104105,0.14868164,-0.108947754,-0.9507446,-0.703125,-1.390625,0.03125
1696292104150,0.14697266,-0.1116333,-0.94732666,-1.0,-1.390625,0.078125
1696292104180,0.14770508,-0.109191895,-0.9505005,-0.65625,-1.421875,0.046875
1696292104224,0.1574707,-0.11383057,-0.94976807,-1.03125,-1.40625,0.109375
1696292104271,0.1496582,-0.11114502,-0.94415283,-0.90625,-1.421875,0.09375
1696292104301,0.14892578,-0.11383057,-0.95196533,-0.6875,-1.1875,0.109375
1696292104344,0.15356445,-0.11016846,-0.95025635,-0.65625,-1.46875,0.171875
1696292104373,0.15039062,-0.11407471,-0.94488525,-0.921875,-1.1875,0.109375
1696292104421,0.14990234,-0.11383057,-0.944397,-0.8125,-1.328125,0.03125
1696292104464,0.15307617,-0.11505127,-0.9429321,-0.90625,-1.421875,0.09375
1696292104494,0.15332031,-0.12359619,-0.94122314,-0.8125,-1.046875,0.09375
1696292104539,0.15234375,-0.117492676,-0.9414673,-0.546875,-1.359375,0.140625
1696292104586,0.15429688,-0.12261963,-0.9468384,-0.390625,-0.984375,0.078125
1696292104614,0.15234375,-0.11578369,-0.9495239,-1.140625,-1.359375,0.109375
1696292104662,0.15258789,-0.117248535,-0.95147705,-0.96875,-1.265625,0.125
1696292104689,0.15625,-0.10992432,-0.94244385,-0.953125,-1.203125,0.109375
1696292104735,0.15429688,-0.113098145,-0.9404907,-0.703125,-1.078125,0.125
1696292104780,0.15234375,-0.1116333,-0.94195557,-0.890625,-0.953125,0.296875
1696292104810,0.14477539,-0.11627197,-0.944397,-0.859375,-0.953125,0.25
1696292104854,0.14941406,-0.11578369,-0.9468384,-0.703125,-1.125,0.109375
1696292104884,0.1508789,-0.11529541,-0.94366455,-0.59375,-1.125,0.140625
1696292104930,0.15234375,-0.10601807,-0.94244385,-0.328125,-0.96875,0.109375
1696292104974,0.1538086,-0.11529541,-0.9534302,-0.59375,-0.96875,0.0625
1696292105005,0.15258789,-0.11480713,-0.9475708,-0.515625,-0.75,0.140625
1696292105050,0.15014648,-0.11602783,-0.94073486,-0.453125,-0.578125,0.0625
1696292105079,0.15332031,-0.11553955,-0.94415283,-0.578125,-0.5625,0.15625
1696292105126,0.15698242,-0.11920166,-0.9463501,-0.484375,-0.34375,0.03125
1696292105170,0.1550293,-0.10992432,-0.94073486,0.0625,0.078125,0.21875
1696292105198,0.15014648,-0.11456299,-0.9495239,-0.25,0.03125,-0.015625
1696292105246,0.1459961,-0.113342285,-0.94195557,0.09375,0.015625,0.0625
1696292105292,0.1459961,-0.11480713,-0.94366455,-0.484375,-0.21875,-0.03125
1696292105319,0.1472168,-0.117492676,-0.9451294,-0.5,-0.21875,0.125
1696292105366,0.14379883,-0.11651611,-0.9456177,-0.1875,-0.203125,0.21875
1696292105396,0.14916992,-0.11187744,-0.94732666,-0.453125,-0.34375,0.3125
1696292105454,0.15039062,-0.1116333,-0.94366455,-0.25,-0.515625,0.171875
1696292105484,0.1418457,-0.11114502,-0.9500122,-0.5,-0.609375,0.15625
1696292105514,0.14233398,-0.10992432,-0.9495239,-0.03125,-1.046875,0.203125
1696292105560,0.14355469,-0.11407471,-0.95025635,-0.625,-1.1875,0.15625
1696292105589,0.13916016,-0.10845947,-0.94976807,-0.578125,-1.03125,0.171875
1696292105634,0.14013672,-0.11090088,-0.94976807,-0.71875,-1.140625,0.125
1696292105680,0.1430664,-0.11407471,-0.9451294,-0.703125,-1.0625,0.140625
1696292105709,0.1484375,-0.113586426,-0.94488525,-0.625,-0.84375,0.03125
1696292105755,0.14282227,-0.10723877,-0.9470825,-0.546875,-0.921875,0.09375
1696292105800,0.140625,-0.10870361,-0.9446411,-0.53125,-0.671875,0.21875
1696292105829,0.14257812,-0.10748291,-0.9365845,-0.21875,-0.671875,0.28125
1696292105874,0.14770508,-0.10821533,-0.95147705,-0.71875,-0.6875,0.140625
1696292105904,0.1430664,-0.1104126,-0.9421997,-0.296875,-0.75,0.09375
1696292105951,0.14111328,-0.1116333,-0.9470825,-0.6875,-0.71875,0.109375
1696292105995,0.13549805,-0.108947754,-0.94610596,-0.5,-0.78125,0.078125
1696292106023,0.14331055,-0.10455322,-0.9397583,-0.578125,-0.46875,0.0625
1696292106069,0.13891602,-0.11431885,-0.9451294,-0.390625,-0.59375,0.140625
1696292106099,0.14697266,-0.11114502,-0.94415283,-0.671875,-0.46875,0.03125
1696292106144,0.13427734,-0.11065674,-0.9451294,-0.625,-0.59375,0.234375
1696292106189,0.14111328,-0.1116333,-0.94732666,-0.640625,-0.796875,0.140625
1696292106219,0.13891602,-0.10797119,-0.94537354,-0.6875,-0.515625,0.125
1696292106264,0.13427734,-0.11529541,-0.9507446,-0.5625,-0.703125,0.140625
1696292106324,0.14355469,-0.10601807,-0.94000244,-0.234375,-0.828125,0.109375
1696292106339,0.13598633,-0.1104126,-0.94854736,-0.734375,-0.90625,0.15625
1696292106386,0.13208008,-0.105285645,-0.94854736,-0.640625,-0.90625,0.125
1696292106415,0.14013672,-0.105041504,-0.9512329,-0.6875,-1.03125,0.046875
1696292106459,0.13867188,-0.109436035,-0.95025635,-0.75,-1.015625,0.109375
1696292106507,0.14379883,-0.105773926,-0.9470825,-0.453125,-0.703125,0.1875
1696292106534,0.1381836,-0.11383057,-0.95098877,-1.015625,-0.90625,0.140625
1696292106581,0.1352539,-0.10430908,-0.9492798,-0.53125,-1.0,0.25
1696292106610,0.14160156,-0.109191895,-0.94317627,-0.828125,-1.0,0.125
1696292106653,0.13720703,-0.10650635,-0.95025635,-0.765625,-0.8125,0.234375
1696292106699,0.13623047,-0.10748291,-0.9439087,-0.5625,-0.796875,0.171875
1696292106729,0.1394043,-0.1038208,-0.94781494,-0.75,-1.015625,0.15625
1696292106774,0.14038086,-0.10479736,-0.9451294,-0.609375,-1.09375,0.0625
1696292106818,0.14111328,-0.109191895,-0.9500122,-0.71875,-0.984375,0.203125
1696292106849,0.13476562,-0.10870361,-0.9446411,-0.4375,-1.203125,0.203125
1696292106895,0.1381836,-0.10723877,-0.94854736,-0.578125,-1.21875,0.234375
1696292106926,0.13964844,-0.10626221,-0.9429321,-0.53125,-1.203125,0.015625
1696292106970,0.13867188,-0.10601807,-0.95440674,-0.53125,-1.28125,0.171875
1696292106999,0.14013672,-0.10211182,-0.9470825,-0.484375,-1.40625,0.15625
1696292107045,0.14697266,-0.10430908,-0.94854736,-0.75,-1.578125,0.078125
1696292107090,0.1352539,-0.112854004,-0.95147705,-1.0,-1.53125,0.09375
1696292107120,0.14257812,-0.10797119,-0.9475708,-0.6875,-1.53125,0.171875
1696292107163,0.13891602,-0.11138916,-0.9456177,-0.609375,-1.296875,0.140625
1696292107210,0.13916016,-0.10845947,-0.9463501,-0.53125,-1.703125,0.125
1696292107240,0.14355469,-0.10772705,-0.9451294,-0.625,-1.359375,-0.015625
1696292107284,0.14672852,-0.11065674,-0.9500122,-1.28125,-1.46875,0.171875
1696292107314,0.14624023,-0.113586426,-0.9553833,-1.234375,-1.578125,0.09375
1696292107359,0.14575195,-0.10797119,-0.9458618,-0.921875,-1.1875,0.09375
1696292107406,0.14550781,-0.11529541,-0.9463501,-0.78125,-1.296875,0.234375
1696292107435,0.14111328,-0.11090088,-0.9417114,-0.734375,-1.140625,0.046875
1696292107479,0.14746094,-0.11016846,-0.95025635,-0.875,-1.5,0.109375
1696292107509,0.14746094,-0.11846924,-0.95269775,-0.765625,-1.375,0.203125
1696292107571,0.14379883,-0.10821533,-0.94903564,-0.953125,-1.359375,0.109375
1696292107599,0.15161133,-0.11236572,-0.95196533,-0.8125,-1.28125,0.25
1696292107629,0.1508789,-0.10821533,-0.9468384,-0.78125,-1.375,0.265625
1696292107678,0.14990234,-0.11138916,-0.94781494,-0.640625,-1.375,0.03125
1696292107704,0.14868164,-0.10650635,-0.9451294,-0.84375,-1.375,0.171875
1696292107749,0.15234375,-0.11602783,-0.9500122,-0.921875,-1.3125,0.015625
1696292107795,0.14819336,-0.11773682,-0.94903564,-0.734375,-1.296875,0.1875
1696292107823,0.1484375,-0.113586426,-0.9495239,-0.609375,-1.296875,0.109375
1696292107870,0.15014648,-0.11114502,-0.95098877,-0.515625,-1.375,0.046875
1696292107915,0.14794922,-0.12164307,-0.9434204,-0.65625,-1.265625,0.078125
1696292107944,0.15332031,-0.11431885,-0.94195557,-1.125,-1.21875,0.125
1696292107991,0.16064453,-0.11578369,-0.9541626,-1.015625,-1.296875,0.078125
1696292108034,0.15307617,-0.11236572,-0.94903564,-0.8125,-1.171875,0.109375
1696292108064,0.15405273,-0.11529541,-0.94415283,-0.578125,-0.9375,0.125
1696292108109,0.15600586,-0.11260986,-0.94366455,-0.625,-0.9375,0.1875
1696292108139,0.15576172,-0.11553955,-0.9456177,-0.890625,-0.90625,0.140625
1696292108185,0.15112305,-0.117248535,-0.94415283,-0.640625,-0.96875,0.140625
1696292108214,0.14990234,-0.11627197,-0.9487915,-0.59375,-0.78125,0.109375
1696292108259,0.1538086,-0.11456299,-0.9505005,-0.578125,-0.75,0.015625
1696292108306,0.15014648,-0.11236572,-0.9463501,-0.484375,-0.53125,0.15625
1696292108334,0.1496582,-0.11431885,-0.94366455,-0.109375,-0.734375,0.109375
1696292108379,0.14208984,-0.11505127,-0.9475708,-0.359375,-0.875,0.0625
1696292108424,0.1472168,-0.109680176,-0.9468384,-0.6875,-0.953125,0.015625
1696292108454,0.14941406,-0.11212158,-0.9439087,-0.640625,-0.953125,0.28125
1696292108500,0.14892578,-0.112854004,-0.94488525,-0.34375,-0.96875,0.140625
1696292108544,0.15136719,-0.11480713,-0.94854736,-0.671875,-0.78125,0.15625
1696292108590,0.15063477,-0.1116333,-0.9512329,-0.671875,-1.15625,0.1875
1696292108619,0.1508789,-0.113098145,-0.9451294,-0.953125,-1.3125,0.234375
1696292108649,0.14892578,-0.11138916,-0.94903564,-0.796875,-1.171875,0.109375
1696292108695,0.14941406,-0.11260986,-0.94244385,-0.65625,-1.0625,0.0625
1696292108770,0.1484375,-0.11553955,-0.9451294,-0.796875,-1.109375,0.125
1696292108773,0.15258789,-0.11383057,-0.9421997,-0.78125,-0.8125,0.140625
1696292108814,0.15209961,-0.11602783,-0.94122314,-0.515625,-0.65625,0.171875
1696292108846,0.14892578,-0.105773926,-0.95196533,-0.671875,-0.75,0.15625
1696292108890,0.14868164,-0.112854004,-0.95806885,-0.453125,-0.328125,0.125
1696292108920,0.1459961,-0.1116333,-0.9487915,-0.25,0.015625,0.203125
1696292108966,0.14331055,-0.109680176,-0.95098877,-0.421875,-0.34375,0.15625
1696292109010,0.15063477,-0.11480713,-0.93927,-0.21875,-0.234375,0.125
1696292109040,0.14208984,-0.113586426,-0.94366455,-0.1875,-0.203125,0.046875
1696292109099,0.140625,-0.11529541,-0.944397,-0.21875,-0.546875,0.15625
1696292109176,0.13793945,-0.117004395,-0.94781494,-0.28125,-0.546875,0.125
1696292109178,0.13916016,-0.108947754,-0.9507446,-0.421875,-0.65625,0.15625
1696292109205,0.1394043,-0.11065674,-0.940979,0.0,-0.328125,0.109375
1696292109234,0.13696289,-0.11480713,-0.95684814,-0.546875,-0.921875,0.21875
1696292109281,0.1394043,-0.10845947,-0.94415283,-0.828125,-0.765625,0.125
1696292109325,0.13867188,-0.11260986,-0.93927,-0.3125,-0.34375,0.140625
1696292109354,0.14208984,-0.11016846,-0.9417114,-0.65625,-0.5,0.3125
1696292109400,0.13549805,-0.109191895,-0.942688,-1.15625,-0.78125,0.203125
1696292109430,0.14160156,-0.109680176,-0.9480591,-1.046875,-0.734375,0.140625
1696292109474,0.13867188,-0.11553955,-0.9385376,-0.4375,-0.765625,0.125
1696292109522,0.14697266,-0.11212158,-0.94610596,-0.5,-0.9375,0.21875
1696292109549,0.14355469,-0.112854004,-0.94659424,-0.359375,-0.796875,0.234375
1696292109595,0.14257812,-0.105773926,-0.9475708,-0.609375,-0.75,0.03125
1696292109623,0.1381836,-0.112854004,-0.9487915,-0.546875,-0.640625,0.03125
1696292109669,0.1394043,-0.11260986,-0.9480591,-0.5,-0.953125,0.109375
1696292109716,0.14013672,-0.11138916,-0.9451294,-0.40625,-0.8125,0.109375
1696292109760,0.14428711,-0.11431885,-0.94488525,-0.359375,-0.84375,0.15625
1696292109791,0.1328125,-0.11260986,-0.9421997,-0.40625,-0.546875,0.109375
1696292109836,0.14208984,-0.105529785,-0.9468384,-0.453125,-0.734375,0.21875
1696292109863,0.13452148,-0.10992432,-0.94610596,-0.140625,-0.703125,0.078125
1696292109911,0.13623047,-0.10479736,-0.94976807,-0.75,-1.171875,0.15625
1696292109940,0.13745117,-0.109680176,-0.9517212,-0.953125,-0.953125,0.1875
1696292109986,0.13330078,-0.10870361,-0.9463501,-0.4375,-0.625,0.046875
1696292110030,0.13574219,-0.11090088,-0.9451294,-0.5,-0.6875,0.09375
1696292110059,0.13330078,-0.11138916,-0.9456177,-0.5,-0.625,0.03125
1696292110106,0.13110352,-0.11065674,-0.9507446,-0.53125,-0.75,0.03125
1696292110134,0.13330078,-0.10601807,-0.9546509,-0.4375,-0.71875,0.21875
1696292110181,0.1315918,-0.109436035,-0.9446411,-0.578125,-0.953125,0.109375
1696292110226,0.1352539,-0.1104126,-0.9541626,-0.59375,-0.765625,0.1875
1696292110254,0.1352539,-0.10772705,-0.9500122,-0.484375,-0.859375,0.203125
1696292110299,0.13232422,-0.10430908,-0.95147705,-0.375,-0.9375,0.21875
1696292110330,0.13208008,-0.11016846,-0.94317627,-0.515625,-1.0625,0.15625
1696292110376,0.13720703,-0.11065674,-0.9456177,-0.703125,-1.296875,0.1875
1696292110420,0.13623047,-0.11236572,-0.94976807,-0.453125,-1.171875,0.203125
1696292110449,0.13378906,-0.10601807,-0.95098877,-0.4375,-1.09375,0.21875
1696292110494,0.13232422,-0.10626221,-0.9507446,-0.765625,-1.421875,0.15625
1696292110540,0.13964844,-0.10601807,-0.94415283,-0.515625,-1.265625,0.09375
1696292110569,0.13647461,-0.10675049,-0.9512329,-0.90625,-1.359375,0.15625
1696292110614,0.1418457,-0.10748291,-0.95098877,-0.859375,-1.5,0.1875
1696292110644,0.13842773,-0.10821533,-0.94732666,-0.8125,-1.375,0.046875
1696292110689,0.14111328,-0.1038208,-0.9522095,-0.609375,-1.3125,0.234375
1696292110735,0.14038086,-0.113098145,-0.9505005,-0.859375,-1.234375,0.0625
1696292110765,0.140625,-0.10601807,-0.9483032,-0.6875,-1.359375,0.109375
1696292110810,0.13793945,-0.11236572,-0.9468384,-0.921875,-1.359375,0.140625
1696292110841,0.13476562,-0.10821533,-0.94195557,-0.71875,-1.34375,0.140625
1696292110884,0.13916016,-0.11114502,-0.944397,-0.640625,-1.234375,0.015625
1696292110929,0.14086914,-0.10626221,-0.9507446,-0.65625,-1.640625,0.03125
1696292110959,0.13842773,-0.10845947,-0.9414673,-0.984375,-1.390625,0.15625
1696292111006,0.14160156,-0.10797119,-0.9456177,-0.578125,-1.28125,0.1875
1696292111050,0.15234375,-0.11114502,-0.9458618,-0.859375,-1.59375,0.078125
1696292111079,0.14477539,-0.10870361,-0.9470825,-0.71875,-1.1875,0.140625
1696292111125,0.1418457,-0.10821533,-0.9434204,-0.359375,-1.296875,0.203125
1696292111154,0.15234375,-0.10699463,-0.94854736,-1.078125,-1.265625,0.03125
1696292111200,0.1484375,-0.109680176,-0.9468384,-0.703125,-1.265625,0.171875
1696292111246,0.14770508,-0.11480713,-0.9429321,-1.125,-1.515625,0.125
1696292111274,0.14697266,-0.10748291,-0.9463501,-1.0,-1.21875,-0.015625
1696292111319,0.14428711,-0.109680176,-0.9360962,-0.796875,-1.140625,0.15625
1696292111396,0.1472168,-0.10772705,-0.9429321,-0.75,-1.21875,0.109375
1696292111398,0.14550781,-0.11187744,-0.94976807,-0.875,-1.34375,0.0625
1696292111439,0.14672852,-0.11505127,-0.942688,-1.0,-1.171875,0.0
1696292111470,0.15209961,-0.109436035,-0.9505005,-0.78125,-1.25,0.125
1696292111517,0.15039062,-0.11212158,-0.94976807,-0.828125,-1.265625,-0.078125
1696292111560,0.14208984,-0.11651611,-0.94732666,-0.5,-1.171875,0.078125
1696292111590,0.15283203,-0.10870361,-0.94732666,-0.84375,-1.125,0.125
1696292111637,0.14770508,-0.108947754,-0.94122314,-0.71875,-1.21875,0.15625
1696292111664,0.14892578,-0.1116333,-0.9505005,-0.828125,-1.34375,0.03125
1696292111710,0.14868164,-0.1104126,-0.9429321,-0.921875,-1.34375,0.109375
1696292111754,0.15039062,-0.12017822,-0.9463501,-0.953125,-1.40625,0.09375
1696292111784,0.1484375,-0.1116333,-0.9495239,-0.734375,-1.203125,0.25
1696292111828,0.15161133,-0.113342285,-0.9429321,-0.53125,-0.78125,0.171875
1696292111860,0.15234375,-0.113342285,-0.95269775,-0.8125,-1.015625,0.140625
1696292111918,0.14746094,-0.11456299,-0.942688,-0.5625,-0.796875,0.0625
1696292111949,0.14990234,-0.11627197,-0.9456177,-0.625,-0.46875,0.171875
1696292111995,0.14526367,-0.11651611,-0.94244385,-0.328125,-0.484375,0.140625
1696292112025,0.14868164,-0.11578369,-0.9483032,-0.40625,-0.390625,0.0625
1696292112054,0.14892578,-0.108947754,-0.94659424,-0.578125,-0.171875,0.15625
1696292112100,0.13989258,-0.11138916,-0.95147705,-0.046875,-0.203125,0.265625
1696292112145,0.13891602,-0.10748291,-0.94195557,-0.328125,-0.28125,0.0
1696292112175,0.14379883,-0.113586426,-0.94366455,-0.125,-0.3125,0.1875
1696292112219,0.15161133,-0.11236572,-0.9517212,-0.15625,-0.265625,0.171875
1696292112249,0.14428711,-0.109680176,-0.94610596,-0.34375,-0.421875,0.3125
1696292112295,0.14428711,-0.10650635,-0.9492798,-0.4375,-0.515625,0.109375
1696292112339,0.1394043,-0.10797119,-0.94659424,-0.53125,-0.609375,0.21875
1696292112369,0.14013672,-0.109436035,-0.9439087,-0.4375,-0.5625,0.265625
1696292112414,0.13745117,-0.10821533,-0.9390259,-0.453125,-0.703125,0.078125
1696292112489,0.14233398,-0.11114502,-0.9487915,-0.78125,-0.71875,0.125
1696292112490,0.14013672,-0.109436035,-0.9505005,-0.5625,-0.78125,0.09375
1696292112534,0.14233398,-0.10797119,-0.94659424,-0.890625,-0.953125,0.109375
1696292112564,0.1394043,-0.10772705,-0.9480591,-0.578125,-0.8125,0.078125
1696292112611,0.14379883,-0.10870361,-0.94781494,-0.578125,-0.8125,0.078125
1696292112653,0.13989258,-0.105773926,-0.9522095,-0.484375,-0.78125,0.09375
1696292112685,0.14135742,-0.10845947,-0.95147705,-0.671875,-0.75,0.234375
1696292112728,0.13598633,-0.11407471,-0.94537354,-0.640625,-0.671875,0.234375
1696292112759,0.1394043,-0.11553955,-0.9446411,-0.640625,-0.890625,0.203125
1696292112807,0.14453125,-0.11260986,-0.9439087,-0.609375,-0.765625,0.171875
1696292112851,0.13598633,-0.11114502,-0.94659424,-0.40625,-0.609375,0.21875
1696292112880,0.13989258,-0.11260986,-0.9536743,-0.4375,-0.53125,0.1875
1696292112924,0.13623047,-0.11016846,-0.94073486,-0.40625,-0.796875,0.046875
1696292112955,0.1394043,-0.10650635,-0.9468384,-0.515625,-0.859375,0.1875
1696292112999,0.1328125,-0.109680176,-0.9483032,-0.546875,-0.6875,0.015625
1696292113046,0.13549805,-0.10650635,-0.9517212,-0.40625,-0.78125,0.078125
1696292113073,0.13696289,-0.109680176,-0.958313,-0.546875,-0.828125,0.140625
1696292113121,0.13476562,-0.10455322,-0.93756104,-0.3125,-0.84375,0.1875
1696292113166,0.13623047,-0.101623535,-0.9522095,-0.625,-1.15625,0.171875
1696292113195,0.13476562,-0.105529785,-0.94732666,-0.703125,-1.0625,0.1875
1696292113240,0.13891602,-0.10064697,-0.94659424,-0.5625,-0.75,0.125
1696292113269,0.13720703,-0.10821533,-0.9487915,-0.53125,-0.84375,0.1875
1696292113313,0.14038086,-0.105041504,-0.9468384,-0.6875,-0.75,0.0
1696292113360,0.12939453,-0.11114502,-0.9492798,-0.625,-0.75,0.171875
1696292113391,0.13769531,-0.10650635,-0.94317627,-0.484375,-0.71875,0.140625
1696292113435,0.13842773,-0.10845947,-0.95196533,-0.8125,-0.84375,0.15625
1696292113479,0.13623047,-0.11212158,-0.94903564,-0.5625,-1.0,0.0625
1696292113509,0.13110352,-0.105773926,-0.9458618,-0.46875,-0.796875,0.171875
1696292113555,0.13793945,-0.10211182,-0.9483032,-0.625,-0.953125,0.15625
1696292113584,0.13647461,-0.10748291,-0.9451294,-0.484375,-0.890625,0.1875
1696292113630,0.12963867,-0.105285645,-0.9553833,-0.625,-1.03125,0.1875
1696292113674,0.13476562,-0.10650635,-0.9446411,-0.453125,-1.046875,0.03125
1696292113704,0.13574219,-0.105285645,-0.9541626,-0.625,-0.953125,0.140625
1696292113750,0.1352539,-0.101623535,-0.9500122,-0.734375,-1.15625,0.125
1696292113779,0.13647461,-0.10601807,-0.9456177,-0.421875,-1.1875,0.140625
1696292113825,0.14208984,-0.11236572,-0.95513916,-0.890625,-1.234375,0.109375
1696292113870,0.1328125,-0.10064697,-0.9487915,-0.828125,-1.375,0.328125
1696292113914,0.1352539,-0.101135254,-0.94122314,-0.71875,-1.21875,0.03125
1696292113944,0.13354492,-0.108947754,-0.9456177,-0.65625,-1.859375,0.28125
1696292113975,0.1418457,-0.10601807,-0.94732666,-0.890625,-1.484375,0.234375
1696292114019,0.13500977,-0.10235596,-0.9456177,-0.90625,-1.546875,0.15625
1696292114065,0.13598633,-0.10430908,-0.956604,-0.96875,-1.375,0.09375
1696292114095,0.1340332,-0.11212158,-0.94366455,-0.859375,-1.46875,0.125
1696292114139,0.14550781,-0.105529785,-0.9492798,-0.671875,-1.4375,0.03125
1696292114169,0.13745117,-0.109680176,-0.9463501,-0.859375,-1.5625,0.125
1696292114214,0.14331055,-0.113586426,-0.94732666,-0.765625,-1.46875,0.078125
1696292114262,0.1418457,-0.11016846,-0.94415283,-0.90625,-1.46875,0.109375
1696292114289,0.14038086,-0.113342285,-0.9404907,-0.9375,-1.4375,0.21875
1696292114335,0.13769531,-0.109436035,-0.9463501,-0.828125,-1.40625,0.21875
1696292114379,0.14746094,-0.10797119,-0.95635986,-0.671875,-1.421875,0.171875
1696292114410,0.1459961,-0.109436035,-0.94732666,-0.53125,-1.53125,0.078125
1696292114455,0.15039062,-0.109191895,-0.9505005,-0.859375,-1.4375,0.25
1696292114484,0.15014648,-0.10479736,-0.9536743,-1.234375,-1.515625,0.25
1696292114531,0.1472168,-0.1104126,-0.9500122,-1.1875,-1.53125,0.171875
1696292114575,0.14648438,-0.11065674,-0.9463501,-0.796875,-1.421875,0.15625
1696292114605,0.14794922,-0.11260986,-0.94854736,-0.734375,-1.28125,0.109375
1696292114649,0.14672852,-0.113342285,-0.9429321,-0.84375,-1.28125,0.125
1696292114679,0.14746094,-0.108947754,-0.94781494,-1.15625,-1.171875,0.140625
1696292114725,0.14672852,-0.108947754,-0.94537354,-0.921875,-1.34375,0.203125
1696292114769,0.1508789,-0.1104126,-0.94317627,-0.796875,-1.328125,0.0625
1696292114799,0.15063477,-0.120910645,-0.94659424,-0.828125,-1.15625,-0.09375
1696292114845,0.14868164,-0.120910645,-0.94488525,-0.640625,-0.921875,0.15625
1696292114874,0.1484375,-0.109436035,-0.9397583,-0.84375,-1.1875,0.140625
1696292114921,0.15234375,-0.11431885,-0.94244385,-0.65625,-1.203125,0.0625
1696292114964,0.14990234,-0.113098145,-0.9468384,-0.953125,-1.28125,0.21875
1696292114994,0.15258789,-0.11602783,-0.9470825,-0.921875,-1.265625,0.171875
1696292115042,0.15625,-0.11236572,-0.9463501,-0.59375,-1.296875,0.25
1696292115116,0.15625,-0.113342285,-0.9456177,-0.84375,-1.0625,0.125
1696292115121,0.1574707,-0.1104126,-0.94903564,-0.6875,-1.078125,0.203125
1696292115163,0.15576172,-0.11602783,-0.93829346,-0.671875,-1.25,0.203125
1696292115190,0.15185547,-0.11529541,-0.94537354,-0.765625,-1.03125,0.140625
1696292115234,0.15307617,-0.11651611,-0.9429321,-0.875,-0.96875,0.140625
1696292115280,0.15527344,-0.11016846,-0.9414673,-0.75,-1.125,0.3125
1696292115310,0.15356445,-0.11578369,-0.9492798,-0.75,-0.984375,0.09375
1696292115354,0.15014648,-0.11236572,-0.9434204,-0.5,-1.0,0.125
1696292115386,0.1574707,-0.11505127,-0.9517212,-0.703125,-0.9375,0.171875
1696292115429,0.15112305,-0.11627197,-0.9507446,-0.828125,-0.828125,0.125
1696292115474,0.15527344,-0.11236572,-0.94244385,-0.5,-0.890625,0.3125
1696292115506,0.14819336,-0.1116333,-0.9463501,-0.671875,-0.78125,0.109375
1696292115552,0.15576172,-0.117004395,-0.9434204,-0.53125,-0.78125,0.15625
1696292115579,0.15356445,-0.11773682,-0.942688,-0.578125,-0.515625,0.171875
1696292115624,0.15527344,-0.11602783,-0.9434204,-0.5,-0.359375,0.0625
1696292115672,0.15332031,-0.11578369,-0.94781494,-0.4375,-0.578125,0.21875
1696292115698,0.15209961,-0.11236572,-0.944397,-0.296875,-0.515625,0.171875
1696292115746,0.14624023,-0.10699463,-0.9470825,-0.40625,-0.140625,0.140625
1696292115791,0.14501953,-0.11431885,-0.9495239,-0.8125,-0.5,0.09375
1696292115819,0.14770508,-0.11236572,-0.9487915,-0.4375,-0.53125,0.03125
1696292115865,0.14355469,-0.11431885,-0.94659424,-0.15625,-0.125,0.03125
1696292115894,0.14794922,-0.11602783,-0.9456177,-0.203125,-0.21875,0.171875
1696292115941,0.14233398,-0.1194458,-0.9468384,-0.203125,-0.34375,0.21875
1696292115985,0.1472168,-0.10772705,-0.9492798,-0.453125,-0.546875,0.171875
1696292116014,0.1484375,-0.116760254,-0.9414673,-0.265625,-0.5625,0.1875
1696292116060,0.14697266,-0.11480713,-0.9487915,-0.59375,-0.578125,0.234375
1696292116089,0.14477539,-0.113098145,-0.94854736,-0.609375,-0.671875,0.21875
1696292116135,0.1484375,-0.11627197,-0.94488525,-0.203125,-0.59375,0.140625
1696292116179,0.1430664,-0.109191895,-0.9495239,-0.6875,-0.65625,0.0625
1696292116209,0.14208984,-0.11090088,-0.9480591,-0.296875,-0.59375,0.171875
1696292116256,0.14257812,-0.11090088,-0.9475708,-0.578125,-0.84375,0.203125
1696292116316,0.14111328,-0.113586426,-0.9487915,-0.390625,-0.84375,0.125
1696292116344,0.14550781,-0.11138916,-0.9524536,-0.578125,-0.8125,0.078125
1696292116373,0.13891602,-0.11212158,-0.9553833,-0.359375,-0.890625,0.09375
1696292116405,0.13769531,-0.11236572,-0.9397583,-0.328125,-0.78125,0.109375
1696292116448,0.14282227,-0.10845947,-0.9505005,-0.75,-1.046875,0.25
1696292116495,0.14111328,-0.10284424,-0.94488525,-0.796875,-1.1875,0.109375
1696292116524,0.14038086,-0.11114502,-0.9446411,-0.5,-0.6875,0.109375
1696292116586,0.14233398,-0.11383057,-0.94976807,-0.515625,-0.78125,0.25
1696292116599,0.14355469,-0.10821533,-0.94659424,-0.609375,-0.671875,0.28125
1696292116646,0.14208984,-0.11090088,-0.9500122,-0.625,-0.5625,0.015625
1696292116691,0.13671875,-0.10797119,-0.94781494,-0.53125,-0.8125,0.15625
1696292116719,0.13769531,-0.11016846,-0.94415283,-0.421875,-0.921875,0.234375
1696292116764,0.13720703,-0.11260986,-0.95098877,-0.640625,-0.953125,0.25
1696292116793,0.13696289,-0.10455322,-0.94537354,-0.375,-0.625,0.1875
1696292116839,0.14257812,-0.11236572,-0.95391846,-0.5,-0.8125,0.203125
1696292116883,0.13989258,-0.105285645,-0.9463501,-0.375,-0.765625,0.171875
1696292116914,0.13549805,-0.10797119,-0.94415283,-0.453125,-0.953125,0.109375
1696292116959,0.13696289,-0.10772705,-0.9487915,-0.578125,-0.828125,0.03125
1696292117006,0.14135742,-0.10455322,-0.94976807,-0.671875,-0.859375,0.109375
1696292117035,0.13623047,-0.11505127,-0.94537354,-0.328125,-0.8125,0.078125
1696292117080,0.14086914,-0.105041504,-0.95440674,-0.765625,-1.078125,0.0625
1696292117109,0.13745117,-0.10845947,-0.9500122,-0.3125,-0.984375,0.203125
1696292117155,0.14038086,-0.09967041,-0.94415283,-0.6875,-1.25,0.171875
1696292117200,0.14282227,-0.105529785,-0.94488525,-0.78125,-1.21875,0.3125
1696292117229,0.13867188,-0.105285645,-0.9458618,-0.4375,-1.03125,0.171875
1696292117275,0.14208984,-0.10772705,-0.95025635,-0.625,-1.34375,0.25
1696292117304,0.1418457,-0.10430908,-0.94781494,-0.734375,-1.53125,0.15625
1696292117351,0.14233398,-0.109191895,-0.944397,-1.046875,-1.578125,0.234375
1696292117393,0.14208984,-0.11236572,-0.94976807,-0.84375,-1.40625,0.171875
1696292117425,0.1394043,-0.10992432,-0.9480591,-1.078125,-0.96875,0.203125
1696292117472,0.13769531,-0.11016846,-0.94415283,-0.484375,-1.015625,0.1875
1696292117500,0.1459961,-0.105773926,-0.94732666,-0.40625,-1.046875,0.0625
1696292117547,0.14013672,-0.10406494,-0.9500122,-0.8125,-1.46875,0.109375
1696292117591,0.13964844,-0.11602783,-0.9512329,-0.765625,-1.21875,0.046875
1696292117619,0.1459961,-0.113342285,-0.9541626,-1.15625,-1.546875,0.21875
1696292117667,0.14575195,-0.10845947,-0.94366455,-0.71875,-1.453125,0.09375
1696292117709,0.14160156,-0.1116333,-0.9517212,-0.9375,-1.453125,0.03125
1696292117740,0.14331055,-0.10772705,-0.94488525,-0.734375,-1.5625,0.09375
1696292117785,0.14355469,-0.11798096,-0.95098877,-0.828125,-1.328125,-0.015625
1696292117814,0.15014648,-0.10772705,-0.9475708,-1.078125,-1.578125,0.125
1696292117862,0.15136719,-0.11553955,-0.94195557,-1.09375,-1.65625,0.140625
1696292117905,0.15039062,-0.117004395,-0.9500122,-0.921875,-1.109375,-0.015625
1696292117934,0.15551758,-0.11627197,-0.94244385,-0.609375,-1.203125,0.09375
1696292117980,0.15332031,-0.11236572,-0.9429321,-0.640625,-1.328125,0.046875
1696292118010,0.15307617,-0.11383057,-0.9529419,-0.9375,-1.1875,0.109375
1696292118056,0.14404297,-0.11602783,-0.94195557,-0.765625,-1.296875,0.171875
1696292118100,0.15185547,-0.10748291,-0.95147705,-0.9375,-1.375,0.03125
1696292118129,0.15673828,-0.117492676,-0.9475708,-0.953125,-1.390625,0.078125
1696292118173,0.15112305,-0.105529785,-0.95147705,-0.546875,-1.40625,0.171875
1696292118204,0.15551758,-0.113586426,-0.9456177,-0.703125,-1.21875,0.171875
1696292118251,0.15185547,-0.11578369,-0.93878174,-0.625,-1.296875,0.15625
1696292118294,0.14892578,-0.12335205,-0.94073486,-0.9375,-1.390625,0.15625
1696292118338,0.15136719,-0.11114502,-0.9456177,-0.84375,-1.375,0.1875
1696292118369,0.15478516,-0.112854004,-0.9456177,-0.75,-1.328125,0.1875
1696292118413,0.15649414,-0.116760254,-0.94732666,-1.0625,-1.453125,0.09375
1696292118461,0.15454102,-0.10797119,-0.94122314,-0.6875,-1.203125,0.109375
1696292118489,0.15209961,-0.117492676,-0.9446411,-1.109375,-1.3125,0.109375
1696292118535,0.15405273,-0.11798096,-0.94122314,-0.828125,-1.375,0.15625
1696292118565,0.15795898,-0.120666504,-0.94366455,-0.984375,-1.1875,0.0625
1696292118609,0.15722656,-0.11798096,-0.944397,-0.796875,-1.0625,0.109375
1696292118640,0.1538086,-0.120666504,-0.94854736,-1.046875,-1.3125,0.234375
1696292118685,0.15722656,-0.11529541,-0.9385376,-1.203125,-1.203125,0.09375
1696292118714,0.1616211,-0.121398926,-0.94244385,-0.6875,-1.1875,0.03125
1696292118761,0.15893555,-0.1194458,-0.94000244,-1.046875,-1.375,0.15625
1696292118806,0.15307617,-0.12042236,-0.9470825,-0.75,-1.359375,0.21875
1696292118834,0.16210938,-0.11480713,-0.9456177,-0.703125,-1.265625,0.1875
1696292118880,0.15991211,-0.11968994,-0.94781494,-0.75,-1.25,0.171875
1696292118941,0.16088867,-0.121398926,-0.93927,-0.765625,-0.984375,0.0625
1696292118954,0.15600586,-0.11798096,-0.9487915,-0.734375,-0.75,0.125
1696292119000,0.15893555,-0.11505127,-0.94415283,-0.578125,-0.828125,0.140625
1696292119030,0.15405273,-0.11627197,-0.93951416,-0.203125,-0.46875,0.21875
1696292119073,0.15966797,-0.1194458,-0.944397,-0.1875,-0.8125,0.09375
1696292119136,0.1616211,-0.11895752,-0.9495239,-0.71875,-0.375,0.125
1696292119149,0.16064453,-0.11651611,-0.94610596,-0.578125,-0.0625,0.140625
1696292119196,0.15576172,-0.120666504,-0.9500122,0.015625,-0.25,0.0625
1696292119239,0.15234375,-0.11773682,-0.9480591,-0.03125,0.015625,0.296875
1696292119269,0.14501953,-0.11114502,-0.94000244,-0.125,-0.53125,0.1875
1696292119317,0.15405273,-0.11529541,-0.94976807,-0.296875,-0.5,0.078125
1696292119343,0.15136719,-0.117004395,-0.94781494,-0.515625,-0.234375,0.3125
1696292119391,0.15478516,-0.11407471,-0.9456177,-0.28125,-0.375,0.15625
1696292119419,0.15283203,-0.11114502,-0.9356079,-0.328125,-0.328125,0.0625
1696292119466,0.1484375,-0.117248535,-0.9439087,-0.25,-0.265625,0.15625
1696292119511,0.1472168,-0.11383057,-0.94854736,-0.0625,-0.40625,0.28125
1696292119540,0.1484375,-0.11138916,-0.94317627,-0.3125,-0.53125,0.265625
1696292119586,0.14575195,-0.112854004,-0.9500122,-0.4375,-0.46875,0.171875
1696292119630,0.1484375,-0.11529541,-0.9480591,-0.609375,-0.703125,0.125
1696292119660,0.14086914,-0.11065674,-0.94659424,-0.484375,-0.671875,0.15625
1696292119706,0.14501953,-0.10797119,-0.94659424,-0.40625,-0.640625,0.234375
1696292119734,0.14086914,-0.109436035,-0.9507446,-0.609375,-0.875,0.140625
1696292119781,0.14453125,-0.10821533,-0.9463501,-0.09375,-0.625,0.203125
1696292119825,0.14672852,-0.11529541,-0.9541626,-0.96875,-0.9375,0.0625
1696292119855,0.1418457,-0.10821533,-0.94659424,-0.875,-0.921875,0.0625
1696292119900,0.14086914,-0.10845947,-0.9463501,-0.453125,-0.765625,0.125
1696292119944,0.14013672,-0.11114502,-0.94976807,-0.421875,-0.65625,0.15625
1696292119975,0.14355469,-0.11065674,-0.9429321,-0.5,-0.59375,0.171875
1696292120019,0.14331055,-0.10675049,-0.9475708,-0.5,-0.796875,0.015625
1696292120050,0.14648438,-0.11138916,-0.9475708,-0.375,-0.59375,0.21875
1696292120095,0.14526367,-0.10845947,-0.95025635,-0.53125,-0.9375,0.109375
1696292120124,0.1418457,-0.113098145,-0.9524536,-0.796875,-0.96875,0.1875
1696292120171,0.14111328,-0.1026001,-0.9507446,-0.390625,-0.6875,0.171875
1696292120214,0.13916016,-0.11505127,-0.94903564,-0.65625,-0.71875,0.078125
1696292120244,0.140625,-0.11236572,-0.94610596,-0.4375,-0.828125,0.03125
1696292120289,0.13964844,-0.10772705,-0.9529419,-0.578125,-0.78125,0.109375
1696292120334,0.13476562,-0.11431885,-0.9446411,-0.5,-0.859375,0.171875
1696292120364,0.13964844,-0.10845947,-0.9468384,-0.546875,-0.90625,0.109375
1696292120410,0.13671875,-0.10455322,-0.9546509,-0.6875,-0.9375,0.09375
1696292120439,0.14550781,-0.10772705,-0.9468384,-0.375,-0.734375,0.234375
1696292120485,0.14111328,-0.1026001,-0.9536743,-0.984375,-1.28125,0.125
1696292120529,0.13378906,-0.113098145,-0.9468384,-0.9375,-1.328125,0.125
1696292120576,0.13574219,-0.11578369,-0.94732666,-0.5625,-0.96875,0.1875
1696292120604,0.13647461,-0.10430908,-0.95269775,-0.53125,-1.046875,0.25
1696292120634,0.14233398,-0.10626221,-0.94317627,-0.515625,-1.28125,0.171875
1696292120680,0.13720703,-0.105285645,-0.94854736,-0.671875,-1.171875,0.15625
1696292120725,0.140625,-0.10601807,-0.9456177,-0.53125,-1.078125,0.15625
1696292120754,0.14135742,-0.105529785,-0.9534302,-0.953125,-1.28125,0.25
1696292120800,0.14282227,-0.10748291,-0.9561157,-0.578125,-1.25,0.171875
1696292120828,0.14111328,-0.11236572,-0.9492798,-0.546875,-1.109375,0.15625
1696292120874,0.1418457,-0.10455322,-0.9492798,-0.546875,-1.203125,0.234375
1696292120919,0.14331055,-0.10748291,-0.9470825,-0.734375,-1.296875,0.171875
1696292120949,0.14428711,-0.105773926,-0.94854736,-0.796875,-1.390625,0.25
1696292121011,0.14550781,-0.109436035,-0.9480591,-0.65625,-1.203125,0.21875
1696292121040,0.14550781,-0.11553955,-0.9495239,-0.734375,-1.296875,0.03125
1696292121069,0.14624023,-0.10748291,-0.95098877,-0.84375,-1.296875,0.28125
1696292121114,0.14257812,-0.10406494,-0.94122314,-0.5,-1.0,0.171875
1696292121144,0.14404297,-0.11456299,-0.9522095,-0.90625,-1.390625,0.046875
1696292121192,0.14331055,-0.11138916,-0.9458618,-1.046875,-1.59375,0.109375
1696292121234,0.15136719,-0.10333252,-0.9468384,-0.65625,-1.046875,0.109375
1696292121264,0.14648438,-0.11187744,-0.94488525,-0.671875,-1.1875,0.109375
1696292121309,0.14501953,-0.113586426,-0.9458618,-0.828125,-1.15625,0.203125
1696292121339,0.14477539,-0.10723877,-0.94415283,-0.953125,-1.234375,0.125
1696292121387,0.14111328,-0.11456299,-0.93927,-0.578125,-1.203125,0.171875
1696292121430,0.1459961,-0.11065674,-0.94317627,-0.84375,-1.28125,0.09375
1696292121459,0.14648438,-0.116760254,-0.9487915,-0.71875,-1.15625,0.0625
1696292121506,0.1459961,-0.11236572,-0.95562744,-0.59375,-1.375,0.140625
1696292121534,0.14770508,-0.113342285,-0.94366455,-0.546875,-1.140625,0.109375
1696292121579,0.14672852,-0.10675049,-0.9483032,-0.71875,-1.34375,0.03125
1696292121624,0.14794922,-0.108947754,-0.9434204,-1.09375,-1.484375,0.09375
1696292121654,0.14697266,-0.10601807,-0.94073486,-0.875,-1.578125,0.09375
1696292121700,0.15527344,-0.11798096,-0.94317627,-0.6875,-1.4375,0.140625
1696292121746,0.14916992,-0.11065674,-0.9324341,-0.21875,-2.34375,0.0625
1696292121776,0.1508789,-0.11529541,-0.9507446,-1.890625,-1.90625,0.078125
1696292121821,0.15258789,-0.11505127,-0.94976807,-1.75,-1.734375,0.015625
1696292121848,0.15258789,-0.11798096,-0.95269775,-1.09375,-1.734375,0.1875
1696292121897,0.14916992,-0.11920166,-0.94366455,-0.84375,-1.265625,0.125
1696292121940,0.15283203,-0.112854004,-0.94122314,-0.765625,-1.203125,0.140625
1696292121971,0.15405273,-0.116760254,-0.94488525,-0.8125,-1.234375,0.1875
1696292122014,0.16430664,-0.11627197,-0.9541626,-0.9375,-1.25,0.109375
1696292122044,0.15698242,-0.11895752,-0.9517212,-0.859375,-1.171875,-0.015625
1696292122089,0.1550293,-0.11895752,-0.9417114,-0.8125,-1.21875,0.1875
1696292122137,0.15600586,-0.120666504,-0.93756104,-0.65625,-1.125,0.25
1696292122164,0.15844727,-0.11993408,-0.9439087,-0.640625,-1.234375,0.140625
1696292122210,0.15966797,-0.117248535,-0.94732666,-0.78125,-1.1875,0.25
1696292122255,0.15966797,-0.11236572,-0.9373169,-0.515625,-1.09375,0.1875
1696292122284,0.1628418,-0.11431885,-0.9421997,-1.015625,-1.265625,0.03125
1696292122332,0.15844727,-0.11895752,-0.940979,-0.6875,-1.15625,0.15625
1696292122360,0.15942383,-0.11895752,-0.9446411,-0.546875,-1.203125,0.171875
1696292122406,0.1640625,-0.120666504,-0.94732666,-0.71875,-1.046875,0.140625
1696292122449,0.1586914,-0.117004395,-0.9434204,-0.515625,-1.078125,0.09375
1696292122479,0.16357422,-0.11773682,-0.93829346,-0.84375,-1.15625,0.0
1696292122524,0.1616211,-0.124816895,-0.94659424,-0.875,-1.0,0.125
1696292122554,0.16430664,-0.1182251,-0.9414673,-0.59375,-0.890625,0.234375
1696292122601,0.16137695,-0.1182251,-0.9429321,-0.875,-1.203125,0.1875
1696292122644,0.15771484,-0.11798096,-0.9402466,-0.78125,-0.890625,0.203125
1696292122674,0.16137695,-0.11968994,-0.942688,-0.78125,-0.859375,0.125
1696292122721,0.16137695,-0.113342285,-0.9475708,-0.53125,-0.796875,0.046875
1696292122749,0.15795898,-0.12213135,-0.94610596,-0.703125,-1.078125,0.0625
1696292122796,0.16088867,-0.121398926,-0.94415283,-0.578125,-0.765625,0.234375
1696292122841,0.16503906,-0.121154785,-0.94537354,-0.515625,-0.96875,0.125
1696292122870,0.16088867,-0.121154785,-0.9439087,-0.703125,-0.890625,0.0
1696292122914,0.15722656,-0.116760254,-0.9429321,-0.765625,-0.875,0.15625
1696292122961,0.16137695,-0.116760254,-0.94415283,-0.625,-0.65625,0.21875
1696292122989,0.16015625,-0.121154785,-0.9505005,-0.265625,-0.3125,0.1875
1696292123037,0.15649414,-0.11431885,-0.9421997,0.140625,-0.3125,0.171875
1696292123064,0.15844727,-0.11846924,-0.94244385,0.328125,-0.125,0.1875
1696292123111,0.15698242,-0.11212158,-0.9451294,-0.46875,-0.265625,0.171875
1696292123156,0.15307617,-0.11993408,-0.9463501,-0.265625,-0.328125,0.125
1696292123186,0.15307617,-0.11895752,-0.94854736,-0.078125,-0.03125,0.21875
1696292123229,0.15429688,-0.11016846,-0.94488525,0.078125,-0.203125,0.265625
1696292123260,0.14916992,-0.109436035,-0.95025635,-0.5625,-0.46875,0.078125
1696292123321,0.15014648,-0.11212158,-0.944397,-0.5625,-0.421875,0.109375
1696292123350,0.14819336,-0.1104126,-0.93756104,-0.296875,-0.390625,0.140625
1696292123379,0.15356445,-0.1104126,-0.94415283,-0.421875,-0.5625,0.171875
1696292123425,0.1459961,-0.117004395,-0.94317627,-0.46875,-0.4375,0.125
1696292123454,0.14355469,-0.109436035,-0.9439087,-0.1875,-0.359375,0.1875
1696292123498,0.1472168,-0.11773682,-0.9451294,-0.53125,-0.296875,0.15625
1696292123545,0.14672852,-0.113586426,-0.9463501,-0.265625,-0.34375,0.140625
1696292123574,0.14160156,-0.10797119,-0.9446411,-0.53125,-0.578125,0.171875
1696292123620,0.14111328,-0.113098145,-0.9483032,-0.4375,-0.6875,0.203125
1696292123664,0.14013672,-0.1116333,-0.9522095,-0.5,-0.515625,0.171875
1696292123695,0.14501953,-0.10845947,-0.95318604,-0.609375,-0.734375,0.15625
1696292123740,0.14038086,-0.11114502,-0.94000244,0.125,-0.078125,0.203125
1696292123770,0.14648438,-0.113342285,-0.9517212,-0.53125,-0.78125,0.015625
1696292123818,0.14038086,-0.108947754,-0.94854736,-0.796875,-0.875,0.0625
1696292123861,0.14331055,-0.109680176,-0.9500122,-0.359375,-0.421875,0.078125
1696292123889,0.13696289,-0.109436035,-0.95025635,-0.3125,-0.546875,0.15625
1696292123933,0.14160156,-0.10723877,-0.9500122,-0.390625,-0.5625,0.109375
1696292123964,0.13891602,-0.11065674,-0.95318604,-0.53125,-0.5625,0.125
