# Sensor type: Respeck
# Activity type: Lying down back
# Activity subtype: Normal
# Subject id: s2094833
# Notes: 
timestamp,accel_x,accel_y,accel_z,gyro_x,gyro_y,gyro_z
1696291958261,-0.2397461,-0.17877197,1.0045776,-0.6875,-1.484375,0.015625
1696291958289,-0.24633789,-0.18658447,1.0184937,0.078125,-1.0625,-0.015625
1696291958320,-0.25708008,-0.17022705,1.0079956,-0.59375,-0.6875,0.359375
1696291958365,-0.24267578,-0.18365479,1.0192261,-0.984375,-1.03125,0.34375
1696291958424,-0.23071289,-0.17901611,1.0211792,-0.09375,-1.40625,-0.296875
1696291958439,-0.24633789,-0.17608643,1.0219116,-0.546875,-1.703125,-0.1875
1696291958484,-0.2536621,-0.17877197,1.0133667,-0.75,-2.015625,-0.15625
1696291958514,-0.24414062,-0.18463135,1.00531,-1.328125,-1.953125,0.09375
1696291958560,-0.25317383,-0.17999268,1.0148315,-0.78125,-2.0625,0.140625
1696291958604,-0.25756836,-0.17852783,1.0170288,-0.90625,-2.171875,0.140625
1696291958634,-0.25195312,-0.175354,1.0236206,-0.1875,-2.234375,0.046875
1696291958680,-0.25732422,-0.16558838,1.0123901,-2.0625,-3.0625,-0.25
1696291958710,-0.25708008,-0.17852783,1.0101929,-0.78125,-2.5625,0.015625
1696291958754,-0.2692871,-0.17437744,1.0140991,-2.953125,-3.46875,-0.140625
1696291958800,-0.25708008,-0.17193604,1.0089722,-1.609375,-2.890625,-0.09375
1696291958829,-0.27246094,-0.16070557,1.0123901,-0.71875,-1.90625,0.484375
1696291958875,-0.2680664,-0.16802979,1.0092163,-1.765625,-2.625,0.140625
1696291958919,-0.27270508,-0.17730713,1.0079956,-1.96875,-2.828125,0.109375
1696291958949,-0.27368164,-0.16998291,1.0006714,-2.5,-3.234375,-0.03125
1696291958994,-0.27954102,-0.17828369,1.0077515,-1.5,-2.6875,0.0625
1696291959024,-0.2800293,-0.16192627,1.017273,-3.0,-3.59375,-0.25
1696291959070,-0.29223633,-0.15484619,1.0097046,-5.078125,-3.9375,-0.046875
1696291959114,-0.2763672,-0.14630127,1.001648,-2.28125,-3.125,-0.015625
1696291959144,-0.2944336,-0.15289307,1.0097046,-1.734375,-2.515625,0.09375
1696291959190,-0.29248047,-0.14752197,1.0057983,-2.625,-3.0625,0.140625
1696291959220,-0.29003906,-0.14898682,0.9945679,-3.265625,-2.921875,0.1875
1696291959267,-0.29101562,-0.14239502,1.0079956,-2.03125,-2.28125,0.171875
1696291959311,-0.29785156,-0.13336182,1.0077515,-1.75,-2.203125,-0.03125
1696291959341,-0.30078125,-0.13995361,1.0055542,-1.578125,-2.46875,0.265625
1696291959386,-0.30004883,-0.14434814,1.0255737,-0.515625,-1.578125,-0.296875
1696291959414,-0.3059082,-0.14678955,0.99627686,-2.03125,-2.234375,0.3125
1696291959459,-0.3071289,-0.14068604,1.0175171,-3.6875,-3.25,-0.15625
1696291959506,-0.30419922,-0.1375122,1.0057983,-1.53125,-2.421875,-0.046875
1696291959534,-0.31103516,-0.12530518,1.0011597,-1.75,-1.984375,0.296875
1696291959581,-0.3100586,-0.12701416,1.0031128,-2.1875,-2.046875,0.09375
1696291959611,-0.3095703,-0.12872314,1.0018921,-1.84375,-2.234375,0.046875
1696291959654,-0.30444336,-0.12823486,0.996521,-3.03125,-2.6875,-0.0625
1696291959700,-0.32226562,-0.12506104,1.0026245,-1.0625,-1.453125,0.25
1696291959730,-0.31152344,-0.11798096,1.0072632,-1.75,-2.078125,-0.03125
1696291959774,-0.31933594,-0.12506104,1.0111694,-2.015625,-2.671875,0.125
1696291959851,-0.3178711,-0.12188721,0.99432373,-3.1875,-3.21875,0.09375
1696291959854,-0.31811523,-0.11529541,1.0014038,-2.484375,-2.28125,0.125
1696291959894,-0.32373047,-0.11602783,1.0031128,-1.453125,-1.484375,0.171875
1696291959925,-0.32495117,-0.11846924,1.0031128,-2.09375,-2.09375,0.25
1696291959971,-0.32495117,-0.11212158,0.99920654,-1.953125,-1.9375,0.078125
1696291960014,-0.328125,-0.10675049,1.0004272,-1.328125,-1.984375,0.015625
1696291960045,-0.32763672,-0.10430908,0.9957886,-2.28125,-2.140625,0.0
1696291960093,-0.32250977,-0.112854004,1.0094604,0.5625,-0.625,-0.15625
1696291960119,-0.3227539,-0.10650635,0.9801636,-2.921875,-2.015625,0.21875
1696291960165,-0.3305664,-0.113586426,1.0031128,-1.859375,-2.046875,0.0
1696291960211,-0.3293457,-0.10455322,0.99505615,0.3125,-0.359375,-0.09375
1696291960239,-0.33154297,-0.10308838,1.0048218,0.328125,-0.390625,0.109375
1696291960284,-0.3244629,-0.11016846,0.99920654,-0.6875,-0.765625,0.0625
1696291960315,-0.3317871,-0.11236572,0.99261475,-0.84375,-0.828125,-0.125
1696291960360,-0.33251953,-0.105529785,1.0055542,0.25,0.40625,-0.140625
1696291960405,-0.32739258,-0.10333252,0.9882202,-0.078125,0.265625,0.234375
1696291960434,-0.32666016,-0.11773682,1.0048218,0.0625,0.25,0.234375
1696291960482,-0.32299805,-0.10748291,1.0033569,0.546875,0.265625,0.109375
1696291960524,-0.32250977,-0.10601807,0.996521,0.203125,0.609375,0.0625
1696291960555,-0.32006836,-0.113098145,1.0055542,1.078125,0.6875,0.046875
1696291960599,-0.3251953,-0.12310791,0.99749756,1.109375,1.328125,0.078125
1696291960629,-0.31152344,-0.1182251,0.9945679,0.359375,1.28125,-0.0625
1696291960692,-0.3125,-0.113342285,1.0028687,1.84375,2.578125,0.078125
1696291960721,-0.30566406,-0.12896729,1.0067749,4.90625,4.28125,0.421875
1696291960749,-0.30151367,-0.12432861,1.0089722,3.046875,3.375,-0.25
1696291960794,-0.30444336,-0.14581299,1.0145874,3.984375,2.34375,0.40625
1696291960826,-0.29833984,-0.13873291,1.0116577,-1.109375,-0.453125,-0.25
1696291960869,-0.29785156,-0.13336182,1.0031128,1.25,1.71875,-0.078125
1696291960915,-0.2861328,-0.13677979,1.0045776,3.015625,3.453125,0.484375
1696291960945,-0.28442383,-0.15289307,1.0202026,2.328125,1.90625,0.203125
1696291960992,-0.27612305,-0.1494751,1.0077515,0.625,0.46875,0.21875
1696291961034,-0.28320312,-0.15509033,1.00531,0.21875,0.4375,0.09375
1696291961065,-0.2800293,-0.15899658,1.0167847,1.640625,1.46875,0.140625
1696291961110,-0.27563477,-0.15216064,1.0140991,0.8125,0.921875,-0.0625
1696291961140,-0.27539062,-0.16021729,1.0140991,0.546875,0.671875,0.25
1696291961184,-0.26171875,-0.15802002,1.0099487,0.484375,0.375,0.09375
1696291961230,-0.2697754,-0.15899658,1.010437,0.515625,0.671875,0.234375
1696291961260,-0.26538086,-0.15509033,1.0101929,0.9375,0.734375,0.21875
1696291961305,-0.26049805,-0.16021729,1.0048218,-0.3125,0.375,0.171875
1696291961381,-0.26611328,-0.16485596,1.0165405,0.140625,0.359375,0.28125
1696291961383,-0.25512695,-0.16363525,1.0182495,0.3125,0.40625,0.0
1696291961425,-0.25585938,-0.16827393,1.0182495,1.65625,0.90625,0.453125
1696291961456,-0.26391602,-0.15216064,1.010437,-0.578125,0.1875,0.0625
1696291961500,-0.24853516,-0.17584229,1.0165405,1.421875,0.265625,0.046875
1696291961529,-0.25805664,-0.17242432,1.0133667,-1.65625,-1.375,0.15625
1696291961576,-0.24731445,-0.16265869,1.0077515,-0.53125,0.046875,0.078125
1696291961619,-0.2553711,-0.159729,1.017273,1.6875,1.40625,0.421875
1696291961650,-0.25317383,-0.16607666,1.0162964,-0.34375,0.046875,0.328125
1696291961694,-0.24926758,-0.17559814,1.0128784,0.0625,-0.375,0.0625
1696291961741,-0.24829102,-0.17242432,1.0153198,-0.328125,-0.546875,0.15625
1696291961770,-0.24926758,-0.18096924,1.0116577,0.40625,0.09375,-0.03125
1696291961816,-0.24682617,-0.17144775,1.0140991,-0.09375,-0.171875,0.203125
1696291961859,-0.2446289,-0.18267822,1.0175171,-0.40625,-0.625,0.140625
1696291961889,-0.24072266,-0.17047119,1.012146,0.015625,-0.1875,0.140625
1696291961936,-0.24707031,-0.17730713,1.0150757,-0.3125,-0.390625,0.171875
1696291961964,-0.24609375,-0.17706299,1.0126343,-0.234375,-0.75,0.203125
1696291962009,-0.24023438,-0.1795044,1.0075073,-0.875,-0.84375,0.234375
1696291962039,-0.24731445,-0.18048096,1.0136108,-0.59375,-0.421875,0.25
1696291962086,-0.24414062,-0.17120361,1.015564,-0.3125,-0.796875,0.125
1696291962129,-0.23217773,-0.17218018,1.0206909,0.515625,-0.453125,0.234375
1696291962160,-0.25317383,-0.16168213,1.0094604,-1.4375,-1.359375,0.03125
1696291962205,-0.24291992,-0.18243408,1.0204468,0.28125,-1.03125,0.171875
1696291962233,-0.2446289,-0.17364502,1.0126343,-1.828125,-2.046875,0.015625
1696291962279,-0.24291992,-0.17755127,1.0123901,-1.265625,-1.125,-0.15625
1696291962326,-0.24511719,-0.1716919,1.0123901,0.390625,0.125,0.3125
1696291962354,-0.25170898,-0.17437744,1.0165405,-0.71875,-0.828125,0.140625
1696291962399,-0.23925781,-0.1765747,1.0133667,-0.421875,-0.765625,0.109375
1696291962475,-0.2421875,-0.18365479,1.0067749,-1.0,-1.109375,0.03125
1696291962477,-0.24682617,-0.18756104,1.0128784,0.265625,-0.578125,0.046875
1696291962520,-0.24633789,-0.16802979,1.0167847,-0.578125,-0.78125,-0.0625
1696291962550,-0.24438477,-0.1807251,1.0236206,-0.859375,-1.109375,0.078125
1696291962596,-0.24023438,-0.17852783,1.0223999,-0.34375,-1.09375,0.015625
1696291962641,-0.25097656,-0.17901611,1.0153198,-0.390625,-1.65625,-0.046875
1696291962670,-0.24584961,-0.17047119,1.0165405,-0.53125,-2.015625,0.09375
1696291962714,-0.2475586,-0.17779541,1.0133667,-1.0625,-2.234375,-0.015625
1696291962746,-0.25024414,-0.18243408,1.0145874,-0.6875,-1.96875,-0.078125
1696291962790,-0.2536621,-0.17340088,1.0106812,-1.0,-2.71875,-0.0625
1696291962834,-0.25048828,-0.17022705,1.013855,-0.734375,-2.171875,0.03125
1696291962864,-0.25634766,-0.16778564,1.0023804,-1.921875,-2.703125,0.078125
1696291962910,-0.24780273,-0.17681885,1.0241089,0.1875,-1.953125,-0.234375
1696291962940,-0.25927734,-0.16534424,1.0040894,-2.65625,-3.296875,0.078125
1696291962984,-0.26635742,-0.18048096,1.0065308,-2.6875,-3.0625,0.0
1696291963032,-0.25878906,-0.16436768,1.0097046,-0.28125,-1.59375,0.1875
1696291963059,-0.27246094,-0.16119385,1.0065308,-0.984375,-2.3125,0.015625
1696291963103,-0.26782227,-0.16802979,1.012146,-1.25,-2.578125,-0.046875
1696291963149,-0.26611328,-0.17828369,1.0018921,-1.734375,-2.84375,-0.171875
1696291963180,-0.27734375,-0.16558838,1.008728,-1.015625,-1.984375,-0.109375
1696291963225,-0.27270508,-0.15655518,1.0043335,-1.890625,-2.03125,0.0625
1696291963256,-0.2836914,-0.17266846,1.015564,-1.84375,-2.28125,-0.078125
1696291963299,-0.27368164,-0.1585083,1.0084839,-1.484375,-2.078125,0.03125
1696291963346,-0.2824707,-0.15533447,1.0045776,-1.578125,-2.21875,0.03125
1696291963375,-0.2824707,-0.15533447,1.0099487,-1.421875,-2.40625,-0.046875
1696291963419,-0.27929688,-0.15924072,1.0065308,-1.953125,-2.375,-0.046875
1696291963449,-0.28466797,-0.16363525,1.0077515,-1.78125,-2.0,0.0
1696291963494,-0.28125,-0.1519165,1.0014038,-1.703125,-1.953125,0.0625
1696291963538,-0.28979492,-0.15411377,1.0114136,-0.78125,-1.765625,0.265625
1696291963569,-0.28735352,-0.14239502,1.0075073,-2.171875,-2.640625,-0.265625
1696291963616,-0.29174805,-0.15118408,1.0067749,-0.796875,-1.546875,0.0
1696291963659,-0.29589844,-0.14556885,1.0033569,-3.359375,-2.71875,-0.140625
1696291963689,-0.2861328,-0.15118408,1.0050659,-1.59375,-2.28125,0.0
1696291963735,-0.2993164,-0.14459229,1.0084839,-0.9375,-1.453125,0.28125
1696291963764,-0.29516602,-0.14263916,1.012146,-1.515625,-2.234375,0.171875
1696291963812,-0.2944336,-0.14019775,1.0060425,-1.640625,-2.203125,-0.046875
1696291963854,-0.29345703,-0.1428833,1.0006714,-2.359375,-2.03125,-0.109375
1696291963884,-0.3034668,-0.14752197,1.0101929,-0.578125,-1.28125,0.03125
1696291963929,-0.29614258,-0.1338501,1.008728,-1.078125,-1.703125,-0.03125
1696291963959,-0.30419922,-0.14117432,1.0131226,-1.40625,-1.984375,0.09375
1696291964006,-0.3071289,-0.1362915,1.0036011,-1.09375,-1.875,0.1875
1696291964049,-0.31030273,-0.13531494,1.0106812,-1.59375,-2.34375,0.015625
1696291964081,-0.30908203,-0.13555908,0.9989624,-2.03125,-2.0625,0.03125
1696291964125,-0.3071289,-0.1362915,0.9989624,-2.0,-1.84375,0.015625
1696291964154,-0.3088379,-0.13360596,1.0067749,-1.609375,-1.765625,0.109375
1696291964216,-0.30615234,-0.12164307,1.0043335,-1.34375,-1.734375,-0.03125
1696291964245,-0.3083496,-0.1260376,0.9960327,-1.6875,-1.734375,0.078125
1696291964275,-0.30810547,-0.13336182,1.0162964,0.515625,-0.375,-0.03125
1696291964322,-0.31152344,-0.13677979,0.98724365,-2.265625,-1.421875,0.34375
1696291964398,-0.3137207,-0.14605713,1.0097046,-2.03125,-1.84375,-0.03125
1696291964401,-0.31811523,-0.121398926,0.9984741,-0.6875,-0.828125,0.109375
1696291964441,-0.31860352,-0.120666504,1.0026245,-0.171875,-0.1875,0.28125
1696291964472,-0.3149414,-0.12774658,1.0048218,-0.359375,-0.1875,0.109375
1696291964517,-0.3125,-0.12823486,0.9970093,-0.859375,-0.296875,-0.046875
1696291964561,-0.30297852,-0.12554932,1.0148315,0.09375,0.09375,0.015625
1696291964592,-0.30639648,-0.12628174,0.99334717,-0.578125,0.171875,0.234375
1696291964636,-0.30615234,-0.12994385,1.0075073,-0.34375,0.765625,0.09375
1696291964666,-0.3076172,-0.12945557,1.0036011,1.09375,1.828125,0.171875
1696291964713,-0.30029297,-0.13018799,1.00531,1.53125,2.1875,0.046875
1696291964756,-0.30297852,-0.13922119,1.0133667,2.453125,2.09375,0.125
1696291964785,-0.29907227,-0.13311768,1.0099487,1.265625,1.953125,0.34375
1696291964831,-0.28955078,-0.14312744,1.0065308,1.25,1.640625,0.265625
1696291964860,-0.28320312,-0.14141846,1.0119019,1.015625,1.578125,0.25
1696291964907,-0.28442383,-0.15118408,1.0177612,2.40625,2.03125,0.3125
1696291964954,-0.29125977,-0.14337158,1.0148315,0.671875,1.5625,-0.125
1696291964980,-0.27172852,-0.15997314,1.0197144,2.890625,1.484375,0.234375
1696291965028,-0.27514648,-0.15167236,1.0099487,-1.46875,-0.84375,0.21875
1696291965104,-0.27954102,-0.1531372,1.0033569,0.03125,0.46875,0.125
1696291965109,-0.26513672,-0.1519165,1.0136108,2.03125,2.34375,0.46875
1696291965146,-0.2746582,-0.1675415,1.0089722,1.25,1.34375,0.15625
1696291965175,-0.26123047,-0.16534424,1.0109253,1.03125,0.078125,0.171875
1696291965223,-0.27001953,-0.16290283,1.0067749,-0.25,-0.296875,0.046875
1696291965266,-0.2619629,-0.16949463,1.0111694,1.109375,1.09375,0.03125
1696291965295,-0.26049805,-0.15460205,1.0092163,0.6875,0.859375,-0.03125
1696291965343,-0.26245117,-0.16534424,1.0162964,-0.21875,0.28125,0.328125
1696291965370,-0.2512207,-0.16778564,1.0165405,0.1875,0.21875,0.234375
1696291965418,-0.2578125,-0.16485596,1.0158081,0.25,0.46875,0.125
1696291965460,-0.25756836,-0.17071533,1.0162964,0.796875,0.53125,0.15625
1696291965490,-0.25317383,-0.1765747,1.0082397,-0.59375,-0.3125,0.25
1696291965536,-0.2512207,-0.1795044,1.0182495,-0.171875,-0.09375,0.375
1696291965565,-0.24438477,-0.175354,1.0167847,0.078125,0.265625,0.203125
1696291965613,-0.24560547,-0.1765747,1.0143433,0.609375,-0.28125,0.3125
1696291965656,-0.24780273,-0.16778564,1.024353,0.734375,0.1875,-0.015625
1696291965686,-0.24780273,-0.17779541,1.0106812,-0.03125,-0.640625,0.390625
1696291965748,-0.25195312,-0.18780518,1.0170288,-2.203125,-2.015625,0.109375
1696291965775,-0.23999023,-0.1663208,1.0136108,-0.46875,0.1875,0.09375
1696291965805,-0.25683594,-0.16729736,1.0167847,0.765625,0.5,0.453125
1696291965852,-0.24267578,-0.17218018,1.0136108,-0.109375,-0.671875,0.015625
1696291965881,-0.24169922,-0.18267822,1.0165405,-0.109375,-0.84375,-0.125
1696291965927,-0.25048828,-0.18145752,1.017273,-0.546875,-0.640625,0.203125
1696291965970,-0.24243164,-0.18341064,1.0162964,0.171875,-0.40625,0.234375
1696291966000,-0.24389648,-0.17584229,1.0187378,-0.140625,-0.671875,0.140625
1696291966048,-0.24560547,-0.18292236,1.0236206,-0.703125,-0.515625,-0.046875
1696291966076,-0.24707031,-0.17828369,1.0192261,-0.53125,-0.765625,0.265625
1696291966123,-0.25097656,-0.18145752,1.0116577,-0.3125,-0.953125,0.078125
1696291966166,-0.24633789,-0.17681885,1.0131226,-0.28125,-1.0625,0.03125
1696291966196,-0.24633789,-0.18560791,1.0123901,-1.03125,-1.0,0.109375
1696291966243,-0.24633789,-0.18389893,1.0150757,-0.640625,-1.078125,0.0625
1696291966288,-0.25,-0.18023682,1.0189819,-0.09375,-0.84375,0.0
1696291966315,-0.24365234,-0.18096924,1.017273,-0.109375,-1.609375,0.15625
1696291966363,-0.24707031,-0.17584229,1.0231323,0.71875,-1.1875,-0.421875
1696291966390,-0.24707031,-0.18389893,1.0097046,-1.0,-2.609375,0.234375
1696291966436,-0.2541504,-0.19244385,1.0123901,-2.640625,-3.671875,-0.109375
1696291966479,-0.24658203,-0.1765747,1.0099487,-0.9375,-1.78125,-0.296875
1696291966510,-0.25976562,-0.18048096,1.0153198,-0.265625,-1.875,0.140625
1696291966556,-0.2578125,-0.18121338,1.0194702,-1.25,-3.28125,0.015625
1696291966585,-0.2541504,-0.17510986,1.0060425,-2.328125,-3.296875,-0.015625
1696291966633,-0.26831055,-0.17071533,1.0109253,-1.796875,-2.59375,0.109375
1696291966676,-0.26342773,-0.17803955,1.0014038,-1.734375,-2.234375,0.171875
1696291966705,-0.27124023,-0.16851807,1.0236206,-1.65625,-2.34375,-0.1875
1696291966753,-0.26391602,-0.17462158,1.0116577,-1.9375,-1.75,0.03125
1696291966781,-0.26879883,-0.16534424,1.008728,-1.3125,-1.734375,0.078125
1696291966827,-0.2758789,-0.17388916,1.0079956,-0.859375,-2.015625,0.078125
1696291966873,-0.27807617,-0.16314697,1.0075073,-1.953125,-2.84375,0.015625
1696291966900,-0.27661133,-0.16607666,1.0050659,-2.234375,-2.4375,-0.265625
1696291966949,-0.2722168,-0.16265869,1.007019,-2.09375,-2.234375,0.109375
1696291967023,-0.27661133,-0.16583252,1.0101929,-1.34375,-2.046875,-0.046875
1696291967029,-0.27929688,-0.1609497,1.0031128,-1.828125,-2.421875,0.078125
1696291967065,-0.28100586,-0.16729736,1.0170288,-0.015625,-1.375,-0.203125
1696291967095,-0.28295898,-0.16339111,0.99993896,-2.734375,-2.34375,0.1875
1696291967142,-0.2927246,-0.16680908,1.0126343,-2.96875,-2.640625,-0.0625
1696291967186,-0.28466797,-0.15704346,1.0089722,-0.71875,-1.296875,0.0625
1696291967264,-0.2866211,-0.14703369,1.0089722,-1.171875,-1.828125,0.296875
1696291967269,-0.28271484,-0.15386963,1.0089722,-1.390625,-2.125,-0.015625
1696291967292,-0.28515625,-0.15045166,1.0033569,-2.53125,-2.40625,-0.140625
1696291967337,-0.29638672,-0.14678955,1.0077515,-1.421875,-1.796875,-0.171875
1696291967381,-0.29101562,-0.14361572,0.99627686,-1.421875,-1.8125,-0.046875
1696291967411,-0.29858398,-0.14703369,1.013855,-2.109375,-2.1875,-0.234375
1696291967460,-0.29125977,-0.14776611,1.012146,-1.375,-1.78125,-0.046875
1696291967485,-0.30029297,-0.14019775,1.0004272,-1.90625,-2.265625,-0.0625
1696291967532,-0.29296875,-0.13995361,1.0057983,-1.203125,-1.78125,0.09375
1696291967577,-0.2993164,-0.14190674,1.0072632,-1.40625,-1.4375,0.03125
1696291967606,-0.30249023,-0.14434814,1.0033569,-2.03125,-2.0,0.09375
1696291967652,-0.3017578,-0.14190674,1.0050659,-1.390625,-2.046875,-0.015625
1696291967697,-0.31030273,-0.14630127,1.0109253,-0.21875,-1.703125,0.171875
1696291967726,-0.30688477,-0.13287354,1.0126343,-0.984375,-1.640625,-0.109375
1696291967774,-0.30639648,-0.14312744,1.0057983,-0.671875,-1.328125,0.046875
1696291967802,-0.3010254,-0.14312744,1.0099487,-2.796875,-2.59375,-0.109375
1696291967847,-0.30664062,-0.13189697,1.0082397,-1.046875,-1.9375,-0.125
1696291967890,-0.31689453,-0.12310791,1.0021362,-0.78125,-1.1875,0.3125
1696291967920,-0.31079102,-0.13409424,1.0072632,-1.40625,-1.625,0.0625
1696291967968,-0.31323242,-0.13214111,1.0028687,-1.234375,-1.53125,-0.109375
1696291967995,-0.30810547,-0.13433838,0.9984741,-2.015625,-1.90625,0.015625
1696291968044,-0.3112793,-0.12994385,1.0048218,-0.453125,-1.8125,0.0
1696291968103,-0.30932617,-0.13189697,1.0062866,-1.578125,-2.1875,-0.265625
1696291968114,-0.31152344,-0.12921143,1.001648,-0.640625,-0.640625,0.140625
1696291968163,-0.31347656,-0.13580322,0.9970093,-1.0625,-0.421875,0.15625
1696291968191,-0.3137207,-0.12994385,1.0014038,0.0,0.09375,0.15625
1696291968238,-0.3154297,-0.12994385,1.0045776,0.671875,0.921875,0.21875
1696291968282,-0.31274414,-0.13238525,0.9989624,-0.25,0.28125,0.46875
1696291968310,-0.30297852,-0.12994385,1.0009155,0.25,0.84375,0.34375
1696291968359,-0.30395508,-0.12432861,1.0077515,1.21875,1.9375,0.265625
1696291968401,-0.30126953,-0.1296997,0.9845581,0.625,2.140625,0.34375
1696291968430,-0.3034668,-0.14703369,1.0170288,4.0,3.796875,-0.0625
1696291968479,-0.29003906,-0.14190674,0.9996948,0.78125,1.53125,0.53125
1696291968506,-0.2998047,-0.15460205,1.0043335,-0.453125,0.921875,0.125
1696291968553,-0.28442383,-0.14190674,1.0094604,2.546875,2.90625,0.484375
1696291968595,-0.28222656,-0.13922119,1.0072632,1.8125,2.265625,0.421875
1696291968627,-0.27270508,-0.1609497,1.0119019,1.328125,1.3125,0.0
1696291968673,-0.27661133,-0.159729,1.001648,0.3125,0.25,-0.015625
1696291968700,-0.2770996,-0.1494751,1.0167847,1.296875,1.8125,-0.09375
1696291968748,-0.26538086,-0.15045166,1.0038452,1.234375,1.53125,0.40625
1696291968792,-0.26660156,-0.16485596,1.0199585,0.9375,0.734375,0.03125
1696291968820,-0.26538086,-0.16583252,1.0126343,1.375,0.828125,0.125
1696291968867,-0.25927734,-0.16802979,1.0153198,0.671875,0.53125,0.078125
1696291968911,-0.26391602,-0.17047119,1.0140991,1.296875,0.953125,0.265625
1696291968941,-0.26049805,-0.17095947,1.0077515,0.421875,0.5625,0.125
1696291968987,-0.25854492,-0.17218018,1.0119019,0.421875,0.6875,0.359375
1696291969015,-0.25195312,-0.1675415,1.0123901,0.34375,0.875,0.140625
1696291969062,-0.25146484,-0.17608643,1.0184937,0.984375,0.78125,0.46875
1696291969106,-0.25976562,-0.16558838,1.0006714,-1.015625,-0.9375,0.1875
1696291969135,-0.2434082,-0.18389893,1.0187378,2.171875,0.34375,-0.34375
1696291969182,-0.25,-0.17486572,1.0057983,-1.453125,-0.984375,0.234375
1696291969211,-0.25512695,-0.1819458,1.0026245,-1.84375,-0.90625,0.265625
1696291969257,-0.24731445,-0.17071533,1.0111694,1.203125,1.375,0.421875
1696291969302,-0.24658203,-0.17681885,1.0170288,0.1875,0.765625,0.421875
1696291969331,-0.23852539,-0.18341064,1.0133667,0.171875,0.0625,0.265625
1696291969378,-0.24194336,-0.18414307,1.0079956,-0.453125,-0.484375,0.09375
1696291969404,-0.24072266,-0.17559814,1.0162964,0.15625,0.015625,0.078125
1696291969451,-0.23950195,-0.17706299,1.0065308,-0.390625,-0.171875,0.234375
1696291969494,-0.24536133,-0.18292236,1.0158081,-0.9375,-0.96875,0.03125
1696291969525,-0.23510742,-0.18096924,1.017273,-0.28125,-0.40625,0.125
1696291969569,-0.23950195,-0.1819458,1.0145874,-0.484375,-0.5625,0.203125
1696291969614,-0.24560547,-0.18170166,1.0150757,-0.09375,-0.859375,0.15625
1696291969644,-0.23632812,-0.18511963,1.0028687,-0.5,-0.875,0.09375
1696291969692,-0.24072266,-0.18609619,1.0158081,-0.453125,-0.828125,0.125
1696291969719,-0.23950195,-0.18023682,1.0153198,-0.796875,-0.78125,0.25
1696291969765,-0.23510742,-0.17315674,1.013855,-0.21875,-0.796875,0.234375
1696291969810,-0.2409668,-0.18463135,1.0036011,-1.453125,-1.671875,-0.046875
1696291969839,-0.23266602,-0.190979,1.0202026,0.859375,-0.59375,-0.390625
1696291969886,-0.23657227,-0.18365479,1.008728,-1.78125,-2.09375,0.234375
1696291969915,-0.24438477,-0.19171143,1.0160522,-2.46875,-2.28125,0.03125
1696291969960,-0.23852539,-0.17681885,1.0189819,0.46875,-0.109375,0.296875
1696291970004,-0.2475586,-0.17901611,1.0158081,-0.4375,-1.046875,0.25
1696291970036,-0.23999023,-0.17926025,1.0153198,-0.390625,-1.671875,-0.171875
1696291970082,-0.24267578,-0.18365479,1.0182495,-0.546875,-2.015625,-0.015625
1696291970109,-0.24121094,-0.18048096,1.0216675,-0.25,-1.828125,-0.109375
1696291970157,-0.2446289,-0.17218018,1.0038452,-1.171875,-2.640625,-0.015625
1696291970201,-0.25146484,-0.19268799,1.0187378,-1.875,-3.34375,-0.109375
1696291970230,-0.24560547,-0.175354,1.0150757,-1.40625,-2.609375,0.0
1696291970274,-0.25708008,-0.17706299,1.0099487,-1.84375,-2.890625,-0.03125
1696291970321,-0.25952148,-0.17706299,1.0055542,-1.4375,-2.71875,0.09375
1696291970351,-0.2578125,-0.17901611,1.0079956,-1.734375,-2.84375,0.09375
1696291970396,-0.2705078,-0.175354,1.0123901,-1.640625,-2.421875,-0.015625
1696291970424,-0.27001953,-0.16656494,1.0050659,-2.09375,-2.296875,0.03125
1696291970469,-0.26611328,-0.17071533,1.007019,-1.390625,-2.328125,0.1875
1696291970514,-0.2668457,-0.17022705,1.0082397,-1.875,-2.546875,0.0625
1696291970544,-0.2697754,-0.16925049,1.020935,-0.4375,-1.84375,-0.421875
1696291970589,-0.27539062,-0.16534424,0.9953003,-2.625,-2.609375,0.296875
1696291970619,-0.27294922,-0.17706299,1.0116577,-3.078125,-2.75,-0.0625
1696291970665,-0.27368164,-0.16412354,1.0097046,-0.625,-1.1875,0.109375
1696291970711,-0.28271484,-0.15386963,1.0114136,-1.03125,-1.65625,0.203125
1696291970741,-0.2763672,-0.16851807,1.0082397,-1.21875,-2.234375,-0.078125
1696291970785,-0.27539062,-0.16558838,1.0043335,-2.03125,-2.390625,-0.078125
1696291970814,-0.28271484,-0.1651001,1.0092163,-1.359375,-1.421875,-0.171875
1696291970861,-0.27929688,-0.1560669,0.99749756,-1.796875,-1.546875,0.1875
1696291970906,-0.28735352,-0.16339111,1.0126343,-1.9375,-1.78125,-0.03125
1696291970934,-0.28027344,-0.15093994,1.0084839,-1.1875,-1.484375,-0.015625
1696291970980,-0.2854004,-0.1560669,1.0072632,-1.046875,-1.6875,0.0
1696291971041,-0.28857422,-0.15216064,1.0160522,-1.421875,-1.96875,0.046875
1696291971054,-0.2841797,-0.15557861,1.0084839,-1.4375,-1.765625,0.015625
1696291971100,-0.28955078,-0.15362549,1.0101929,-1.609375,-1.75,-0.046875
1696291971130,-0.2915039,-0.14971924,1.0060425,-1.515625,-1.515625,0.0625
1696291971176,-0.28442383,-0.1482544,1.0150757,-1.28125,-1.796875,0.15625
1696291971219,-0.2915039,-0.13995361,1.0006714,-1.828125,-1.9375,0.046875
1696291971249,-0.29467773,-0.15753174,1.0162964,0.21875,-0.65625,-0.140625
1696291971295,-0.29370117,-0.14727783,0.99798584,-2.328125,-1.5,0.234375
1696291971324,-0.29467773,-0.15704346,1.0123901,-1.953125,-2.109375,-0.109375
1696291971371,-0.29345703,-0.13775635,1.0079956,-0.53125,-0.859375,0.125
1696291971415,-0.29785156,-0.13482666,1.0036011,-0.671875,-0.9375,0.234375
1696291971444,-0.2939453,-0.14385986,1.0111694,-0.875,-1.453125,-0.140625
1696291971492,-0.28857422,-0.14556885,1.0050659,-1.34375,-1.484375,-0.15625
1696291971536,-0.29345703,-0.1428833,1.0128784,-0.953125,-1.078125,-0.109375
1696291971564,-0.28833008,-0.1428833,0.9994507,-1.03125,-1.0,0.171875
1696291971612,-0.30029297,-0.14678955,1.0119019,-1.0,-1.328125,0.015625
1696291971640,-0.29663086,-0.14727783,1.0116577,-0.734375,-1.09375,0.03125
1696291971685,-0.2932129,-0.14117432,1.0072632,-1.234375,-1.484375,0.015625
1696291971731,-0.30151367,-0.14678955,1.0038452,-0.390625,-0.796875,0.203125
1696291971759,-0.29492188,-0.14776611,1.0057983,-0.296875,-0.65625,0.140625
1696291971805,-0.29370117,-0.14801025,1.012146,-0.84375,-0.890625,0.09375
1696291971834,-0.28979492,-0.13995361,1.008728,-0.8125,-0.796875,0.015625
1696291971881,-0.29760742,-0.13873291,1.0202026,0.0,-0.78125,0.15625
1696291971925,-0.2980957,-0.13189697,0.9957886,-1.578125,-1.546875,-0.109375
1696291971954,-0.296875,-0.14263916,1.0126343,0.203125,-0.953125,0.0
1696291972002,-0.29882812,-0.13824463,0.99823,-2.75,-2.0,0.0625
1696291972029,-0.2915039,-0.14556885,1.0089722,-1.28125,-2.046875,0.03125
1696291972074,-0.29785156,-0.13067627,1.0021362,-0.90625,-0.90625,0.1875
1696291972121,-0.2998047,-0.13653564,0.9994507,-0.65625,-0.78125,0.3125
1696291972149,-0.2998047,-0.13897705,1.0075073,-0.6875,-0.625,0.1875
1696291972197,-0.2956543,-0.1375122,0.994812,-1.296875,0.171875,0.03125
1696291972240,-0.296875,-0.13873291,1.015564,0.796875,1.8125,0.03125
1696291972269,-0.29223633,-0.12872314,1.0065308,0.984375,2.078125,0.453125
1696291972316,-0.2939453,-0.1453247,1.008728,1.28125,1.84375,0.46875
1696291972345,-0.28173828,-0.14654541,1.0111694,2.390625,1.75,-0.015625
1696291972389,-0.28881836,-0.15362549,1.0145874,2.09375,1.953125,-0.03125
1696291972433,-0.2783203,-0.15509033,1.0162964,1.546875,1.453125,0.25
1696291972465,-0.27685547,-0.15264893,1.0023804,0.15625,0.953125,0.25
1696291972510,-0.27148438,-0.15875244,1.0097046,0.71875,1.03125,0.203125
1696291972540,-0.27124023,-0.1494751,1.0119019,0.765625,1.015625,0.328125
1696291972586,-0.26464844,-0.16265869,1.0167847,2.03125,1.265625,0.234375
1696291972629,-0.2705078,-0.16290283,1.0062866,-0.734375,0.296875,0.28125
1696291972658,-0.25805664,-0.1663208,1.0194702,2.28125,1.328125,0.125
1696291972708,-0.26611328,-0.159729,1.0089722,-1.109375,-0.71875,0.296875
1696291972734,-0.26660156,-0.17218018,1.0072632,-1.203125,-0.125,0.3125
1696291972779,-0.26245117,-0.16461182,1.010437,1.8125,2.140625,0.4375
1696291972826,-0.26391602,-0.16461182,1.0170288,0.671875,1.3125,0.40625
1696291972854,-0.25439453,-0.17242432,1.0128784,0.40625,0.375,0.21875
1696291972900,-0.25683594,-0.17584229,1.0101929,-0.078125,-0.015625,0.140625
1696291972947,-0.2536621,-0.1729126,1.0199585,0.984375,0.71875,-0.046875
1696291972975,-0.24536133,-0.16339111,1.0062866,-0.078125,0.515625,0.328125
1696291973021,-0.25048828,-0.17828369,1.0180054,-0.921875,-0.359375,0.234375
1696291973050,-0.24487305,-0.17559814,1.0128784,0.09375,0.109375,0.125
1696291973097,-0.24658203,-0.17608643,1.0162964,-0.015625,-0.203125,0.15625
1696291973141,-0.24731445,-0.17315674,1.0067749,-0.09375,-0.34375,0.359375
1696291973169,-0.23730469,-0.17681885,1.0123901,-0.578125,-0.46875,0.09375
1696291973214,-0.24951172,-0.18682861,1.0182495,0.078125,0.140625,0.203125
1696291973244,-0.24023438,-0.17852783,1.0140991,-0.5625,-0.421875,0.234375
1696291973290,-0.24145508,-0.17828369,1.0140991,0.171875,-0.296875,0.234375
1696291973334,-0.23754883,-0.17999268,1.007019,-1.265625,-1.0,0.34375
1696291973364,-0.23486328,-0.18414307,1.0250854,1.5625,-0.125,-0.296875
1696291973411,-0.24804688,-0.17315674,1.0109253,-1.5,-1.6875,0.140625
1696291973440,-0.25073242,-0.17974854,1.0062866,-2.34375,-1.875,0.046875
1696291973485,-0.23754883,-0.1819458,1.0165405,0.75,0.4375,0.359375
1696291973530,-0.2434082,-0.18536377,1.0180054,-0.234375,-0.234375,0.359375
1696291973561,-0.2368164,-0.18365479,1.0150757,-0.3125,-0.890625,0.125
1696291973606,-0.23828125,-0.18389893,1.0119019,-0.796875,-0.890625,0.125
1696291973649,-0.23999023,-0.18170166,1.020935,-0.25,-0.671875,0.09375
1696291973695,-0.23852539,-0.17681885,1.0036011,-0.828125,-0.75,0.21875
1696291973724,-0.23828125,-0.18585205,1.0187378,-0.734375,-1.125,0.09375
1696291973755,-0.23413086,-0.18634033,1.0114136,-0.1875,-0.59375,0.015625
1696291973800,-0.23730469,-0.17901611,1.0123901,-0.625,-0.875,0.203125
1696291973845,-0.24194336,-0.17852783,1.0143433,-0.34375,-0.890625,0.078125
1696291973874,-0.23657227,-0.18096924,1.0158081,-0.328125,-1.1875,-0.078125
1696291973920,-0.23901367,-0.18511963,1.0143433,-0.71875,-0.8125,0.109375
1696291973949,-0.23217773,-0.1807251,1.0145874,-0.890625,-0.984375,0.328125
1696291973997,-0.24121094,-0.18511963,1.0167847,-0.125,-1.046875,0.203125
1696291974040,-0.23779297,-0.19244385,1.0194702,-0.03125,-1.734375,0.09375
1696291974069,-0.24047852,-0.1819458,1.0350952,0.609375,-1.609375,-0.46875
1696291974116,-0.24804688,-0.19439697,1.0116577,-0.78125,-3.0625,0.109375
1696291974159,-0.24853516,-0.20196533,1.0177612,-3.328125,-4.921875,-0.1875
1696291974189,-0.24609375,-0.17633057,1.012146,-1.296875,-3.40625,-0.140625
1696291974249,-0.2644043,-0.1675415,1.0089722,-1.59375,-2.9375,0.171875
1696291974264,-0.25756836,-0.17828369,1.0116577,-1.9375,-2.984375,-0.140625
1696291974311,-0.24926758,-0.17706299,1.0065308,-1.828125,-2.875,0.078125
1696291974354,-0.2626953,-0.17633057,1.0038452,-2.078125,-3.046875,-0.0625
1696291974384,-0.26489258,-0.18536377,1.0079956,-1.78125,-2.453125,0.234375
1696291974431,-0.26367188,-0.1716919,1.0128784,-2.15625,-2.546875,-0.1875
1696291974460,-0.26538086,-0.16949463,1.0126343,-1.953125,-2.515625,-0.078125
1696291974519,-0.2692871,-0.1638794,1.010437,-2.03125,-2.578125,-0.0625
1696291974550,-0.2788086,-0.16851807,1.0119019,-1.59375,-2.203125,0.15625
1696291974580,-0.2709961,-0.16021729,1.0050659,-1.921875,-2.78125,-0.078125
1696291974625,-0.27563477,-0.1572876,1.0131226,-2.328125,-2.25,-0.09375
1696291974654,-0.27783203,-0.1585083,1.0092163,-1.71875,-1.765625,0.203125
1696291974701,-0.27954102,-0.15631104,1.0111694,-1.4375,-1.953125,-0.09375
1696291974745,-0.2770996,-0.1531372,1.001648,-1.8125,-2.1875,0.03125
1696291974776,-0.28100586,-0.16485596,1.0202026,-0.140625,-1.171875,-0.34375
1696291974819,-0.28686523,-0.15655518,0.99676514,-2.4375,-2.046875,0.15625
1696291974866,-0.28588867,-0.1638794,1.0148315,-2.8125,-2.3125,-0.0625
1696291974896,-0.28320312,-0.14508057,1.0067749,-1.0,-1.375,0.0625
1696291974940,-0.29589844,-0.14849854,1.007019,-0.921875,-1.140625,0.3125
1696291974970,-0.28564453,-0.1428833,1.0136108,-1.25,-1.953125,0.0
1696291975015,-0.28637695,-0.15142822,1.0031128,-2.21875,-2.25,0.015625
1696291975059,-0.2939453,-0.14459229,1.0126343,-1.71875,-1.8125,-0.1875
1696291975089,-0.28833008,-0.14678955,1.0006714,-1.703125,-1.546875,0.21875
1696291975136,-0.2902832,-0.14190674,1.0119019,-2.421875,-2.3125,-0.09375
1696291975165,-0.29467773,-0.14483643,1.0067749,-1.59375,-2.515625,0.03125
1696291975212,-0.296875,-0.1453247,1.0011597,-1.984375,-2.328125,-0.09375
1696291975258,-0.29858398,-0.13873291,1.0084839,-1.03125,-1.765625,-0.015625
1696291975285,-0.29956055,-0.13555908,1.0006714,-1.53125,-1.609375,0.03125
1696291975333,-0.30444336,-0.13677979,1.001648,-1.953125,-1.8125,-0.015625
1696291975360,-0.2980957,-0.13922119,1.0038452,-1.484375,-1.640625,0.265625
1696291975407,-0.30395508,-0.13531494,1.0045776,-1.09375,-1.671875,-0.015625
1696291975450,-0.30322266,-0.13043213,1.0031128,-2.203125,-2.453125,0.046875
1696291975479,-0.30078125,-0.13433838,1.0106812,-0.34375,-1.078125,-0.046875
1696291975526,-0.30615234,-0.13311768,0.99383545,-3.84375,-2.375,0.0625
1696291975570,-0.30395508,-0.13922119,1.0060425,-2.03125,-2.359375,-0.09375
1696291975601,-0.31323242,-0.12164307,1.001648,-0.78125,-0.984375,0.28125
1696291975645,-0.31103516,-0.1260376,0.9994507,-0.75,-1.25,0.265625
1696291975675,-0.3112793,-0.13092041,1.0092163,-0.984375,-1.6875,-0.03125
1696291975721,-0.31103516,-0.13604736,0.9984741,-1.78125,-1.8125,-0.171875
1696291975764,-0.31323242,-0.12530518,1.0175171,0.203125,-0.484375,-0.203125
1696291975794,-0.31152344,-0.12042236,1.0009155,-1.15625,-0.96875,0.0
1696291975841,-0.32006836,-0.13238525,1.0045776,-0.90625,-1.3125,0.0
1696291975869,-0.30688477,-0.12872314,1.0145874,-0.546875,-1.015625,-0.078125
1696291975915,-0.31079102,-0.12261963,0.99823,-0.65625,-0.9375,-0.078125
1696291975960,-0.30981445,-0.1260376,1.0077515,-0.4375,-1.421875,0.109375
1696291975989,-0.31201172,-0.13360596,0.9972534,-1.171875,-1.0625,-0.046875
1696291976034,-0.31689453,-0.12408447,0.9994507,-0.75,-0.75,0.078125
1696291976065,-0.31518555,-0.12896729,1.0023804,-0.75,-0.078125,-0.078125
1696291976110,-0.31323242,-0.13067627,1.0062866,0.59375,0.296875,0.4375
1696291976157,-0.31176758,-0.12554932,1.0153198,0.65625,1.140625,-0.03125
1696291976185,-0.31103516,-0.13287354,1.00531,1.28125,1.578125,0.578125
1696291976231,-0.3083496,-0.14263916,1.0216675,-0.59375,-0.015625,0.125
1696291976274,-0.3034668,-0.1272583,1.0040894,0.34375,0.484375,0.1875
1696291976304,-0.30688477,-0.12408447,0.9970093,1.34375,2.296875,0.375
1696291976352,-0.29785156,-0.13580322,1.0094604,1.46875,1.734375,0.28125
1696291976380,-0.29223633,-0.14385986,1.0045776,1.015625,0.84375,0.203125
1696291976426,-0.2902832,-0.13848877,1.0043335,0.234375,1.40625,-0.0625
1696291976471,-0.28808594,-0.14630127,1.0084839,2.546875,3.328125,0.4375
1696291976500,-0.28100586,-0.14752197,1.0136108,2.203125,1.234375,0.140625
1696291976547,-0.28027344,-0.1482544,1.0153198,0.703125,0.359375,0.109375
1696291976573,-0.28051758,-0.14556885,1.0077515,0.625,1.25,0.15625
1696291976623,-0.2763672,-0.15338135,1.0133667,1.21875,1.796875,0.125
1696291976665,-0.2697754,-0.159729,1.0167847,1.71875,1.203125,0.0625
1696291976695,-0.27172852,-0.1609497,1.0040894,-0.28125,0.203125,0.109375
1696291976743,-0.27172852,-0.15948486,1.0067749,0.484375,0.796875,0.203125
1696291976769,-0.27026367,-0.1560669,1.0189819,1.109375,1.171875,0.234375
1696291976815,-0.26342773,-0.16827393,1.0189819,1.4375,0.53125,0.40625
1696291976876,-0.25830078,-0.15582275,1.0160522,0.96875,0.75,-0.0625
1696291976889,-0.26489258,-0.17437744,1.015564,0.796875,0.375,0.34375
1696291976934,-0.2668457,-0.17462158,1.010437,-1.828125,-1.140625,0.0
1696291976980,-0.25146484,-0.16339111,1.007019,0.984375,1.28125,-0.03125
1696291977009,-0.25805664,-0.16802979,1.0189819,2.1875,1.4375,0.453125
1696291977056,-0.24682617,-0.17047119,1.0197144,0.25,0.15625,0.21875
1696291977086,-0.24658203,-0.1716919,1.010437,0.0625,-0.25,0.15625
1696291977133,-0.25195312,-0.17144775,1.0065308,-0.28125,-0.125,0.140625
1696291977176,-0.24780273,-0.1831665,1.0148315,0.5625,0.546875,0.3125
1696291977204,-0.24169922,-0.17364502,1.0245972,0.25,-0.234375,0.0625
1696291977251,-0.25048828,-0.17730713,1.0170288,-0.484375,-0.234375,0.1875
1696291977296,-0.23803711,-0.17437744,1.0101929,0.234375,0.0625,0.171875
1696291977325,-0.24584961,-0.17486572,1.012146,0.140625,-0.125,0.234375
1696291977372,-0.24243164,-0.17779541,1.0116577,-0.09375,-0.40625,0.0
1696291977416,-0.2409668,-0.17779541,1.0136108,-0.5625,-0.5625,-0.015625
1696291977444,-0.23779297,-0.18023682,1.0123901,-0.140625,-0.296875,0.4375
1696291977493,-0.23828125,-0.17730713,1.0126343,-0.015625,-0.4375,0.25
1696291977519,-0.23828125,-0.18463135,1.0094604,0.015625,-0.921875,0.25
1696291977565,-0.23828125,-0.17877197,1.0324097,1.1875,0.0,-0.28125
1696291977594,-0.24389648,-0.18511963,1.0114136,-0.4375,-1.046875,0.375
1696291977641,-0.24584961,-0.18878174,1.0092163,-2.4375,-1.96875,0.03125
1696291977685,-0.22949219,-0.17974854,1.0106812,0.15625,0.234375,0.109375
1696291977714,-0.2512207,-0.17730713,1.0148315,0.359375,0.1875,0.40625
1696291977776,-0.23779297,-0.17437744,1.0140991,-0.4375,-0.984375,0.09375
1696291977789,-0.24145508,-0.18609619,1.0148315,-0.375,-0.875,-0.078125
1696291977836,-0.23730469,-0.18707275,1.0111694,-0.703125,-0.75,0.09375
1696291977880,-0.23754883,-0.18560791,1.012146,-0.4375,-0.703125,0.234375
1696291977911,-0.23583984,-0.18243408,1.0187378,-0.421875,-0.921875,-0.03125
1696291977955,-0.2368164,-0.18218994,1.0114136,-0.5625,-0.890625,-0.078125
1696291977985,-0.23779297,-0.18634033,1.0133667,-0.484375,-0.953125,0.15625
1696291978031,-0.25073242,-0.17999268,1.0140991,-0.296875,-1.453125,0.09375
1696291978076,-0.23828125,-0.18292236,1.0153198,-0.40625,-2.328125,-0.09375
1696291978104,-0.24804688,-0.18585205,1.0145874,-1.15625,-2.546875,0.0
1696291978150,-0.24658203,-0.18048096,1.0211792,-1.4375,-2.984375,-0.09375
1696291978196,-0.24365234,-0.1831665,1.0148315,-1.421875,-3.28125,-0.015625
1696291978240,-0.25048828,-0.17901611,1.0143433,-2.03125,-3.84375,-0.15625
1696291978269,-0.25195312,-0.18292236,1.0158081,-0.421875,-2.703125,-0.625
1696291978299,-0.26733398,-0.18463135,1.0026245,-3.0,-3.765625,0.078125
1696291978345,-0.2680664,-0.18951416,1.0165405,-4.1875,-3.890625,-0.0625
1696291978392,-0.2602539,-0.17071533,1.0055542,-1.1875,-1.8125,0.0625
1696291978419,-0.27416992,-0.15997314,1.0136108,-1.09375,-1.921875,0.125
1696291978465,-0.26831055,-0.1651001,1.013855,-1.625,-2.90625,-0.0625
1696291978495,-0.27001953,-0.16925049,1.0175171,-1.828125,-2.59375,-0.015625
1696291978541,-0.27905273,-0.16339111,1.0094604,-3.53125,-2.75,0.234375
1696291978585,-0.2668457,-0.15753174,0.9906616,-3.609375,-2.84375,0.015625
1696291978614,-0.2709961,-0.15484619,1.0197144,-2.171875,-2.1875,-0.125
1696291978660,-0.27685547,-0.1609497,1.0099487,-1.5,-2.078125,0.046875
1696291978690,-0.27905273,-0.14898682,1.0097046,-2.140625,-2.6875,-0.15625
1696291978737,-0.28637695,-0.14996338,1.007019,-1.921875,-2.828125,0.234375
1696291978781,-0.28173828,-0.15509033,1.0048218,-1.953125,-2.53125,-0.0625
1696291978810,-0.28710938,-0.14923096,1.0072632,-2.640625,-2.484375,-0.15625
1696291978856,-0.29003906,-0.15240479,1.0060425,-2.0625,-2.171875,-0.09375
1696291978931,-0.28344727,-0.13970947,1.0114136,-1.359375,-2.234375,-0.015625
1696291978936,-0.28955078,-0.13702393,1.0057983,-2.09375,-2.609375,-0.0625
1696291978975,-0.2956543,-0.13946533,1.0111694,-0.296875,-1.328125,0.078125
1696291979005,-0.2939453,-0.13897705,0.9957886,-3.71875,-2.6875,0.046875
1696291979051,-0.29858398,-0.14312744,1.0094604,-2.140625,-2.25,-0.03125
1696291979097,-0.30200195,-0.13873291,1.0028687,-0.875,-1.390625,0.078125
1696291979125,-0.3046875,-0.13336182,1.010437,-1.140625,-1.6875,0.125
1696291979170,-0.30126953,-0.13360596,1.0089722,-1.546875,-2.203125,0.046875
1696291979199,-0.30371094,-0.13531494,0.9977417,-2.109375,-2.328125,-0.0625
1696291979246,-0.31103516,-0.14190674,1.0140991,-0.453125,-1.265625,-0.234375
1696291979289,-0.30444336,-0.124816895,1.0050659,-1.328125,-1.828125,-0.109375
1696291979319,-0.31274414,-0.14141846,1.0148315,-1.4375,-1.890625,0.09375
1696291979383,-0.30786133,-0.12994385,1.0045776,-1.625,-2.0625,-0.09375
1696291979394,-0.31298828,-0.12432861,1.0055542,-1.8125,-2.09375,0.046875
1696291979439,-0.31518555,-0.12188721,1.0092163,-1.546875,-2.4375,0.03125
1696291979485,-0.31152344,-0.1296997,1.0055542,-2.078125,-2.421875,0.03125
1696291979515,-0.31347656,-0.12384033,1.0060425,-2.328125,-2.25,0.09375
1696291979560,-0.32250977,-0.120910645,1.0023804,-1.5,-1.875,0.0
1696291979606,-0.31762695,-0.12896729,0.994812,-1.421875,-2.25,0.140625
1696291979634,-0.32739258,-0.120910645,1.0158081,0.21875,-0.640625,-0.21875
1696291979684,-0.31835938,-0.11578369,0.99139404,-1.453125,-1.046875,0.203125
1696291979711,-0.32470703,-0.13018799,1.0165405,-1.5,-1.6875,-0.140625
1696291979754,-0.3239746,-0.11480713,0.99920654,-0.578125,-0.84375,0.09375
1696291979800,-0.32739258,-0.113098145,0.9996948,-0.390625,-0.0625,0.3125
1696291979829,-0.31713867,-0.11212158,1.0043335,-0.40625,-0.03125,-0.0625
1696291979877,-0.31884766,-0.12335205,1.0001831,-0.265625,-0.375,0.0625
1696291979904,-0.32055664,-0.11529541,1.0067749,-0.984375,-1.03125,-0.09375
1696291979950,-0.32006836,-0.113586426,0.99627686,-0.46875,-0.640625,0.3125
1696291979997,-0.3215332,-0.12432861,1.0106812,-0.546875,-0.609375,0.109375
1696291980025,-0.31225586,-0.121398926,1.0018921,-0.203125,0.28125,0.09375
1696291980071,-0.31591797,-0.120666504,0.996521,-0.34375,1.015625,0.125
1696291980114,-0.31347656,-0.11529541,1.0057983,1.796875,1.0625,0.359375
1696291980144,-0.31152344,-0.13409424,1.0079956,0.53125,0.6875,0.359375
1696291980191,-0.31079102,-0.124572754,1.0050659,-0.421875,0.375,0.453125
1696291980220,-0.30322266,-0.12213135,1.0009155,0.3125,0.84375,0.0
1696291980265,-0.30908203,-0.13043213,1.0082397,2.65625,2.59375,0.1875
1696291980311,-0.30151367,-0.1194458,1.0065308,1.421875,2.203125,-0.21875
1696291980339,-0.2932129,-0.1404419,1.0136108,3.96875,3.65625,0.453125
1696291980384,-0.28198242,-0.14385986,1.0119019,0.359375,0.5625,0.03125
1696291980461,-0.2878418,-0.13970947,1.0023804,0.96875,1.078125,0.390625
1696291980464,-0.2866211,-0.1326294,1.007019,1.96875,2.6875,0.4375
1696291980504,-0.28881836,-0.15045166,1.020935,1.734375,1.734375,0.296875
1696291980534,-0.27514648,-0.14923096,1.0089722,-0.15625,-0.09375,0.125
1696291980595,-0.2824707,-0.15460205,1.0021362,-0.453125,0.703125,0.03125
1696291980608,-0.27441406,-0.16021729,1.0079956,2.078125,1.84375,0.25
1696291980654,-0.2668457,-0.15020752,1.0140991,0.984375,0.640625,-0.03125
1696291980700,-0.26831055,-0.15899658,1.0131226,0.484375,0.53125,0.3125
1696291980730,-0.26757812,-0.14654541,1.0128784,0.828125,0.40625,0.140625
1696291980774,-0.2680664,-0.1506958,1.0165405,0.65625,0.671875,0.078125
1696291980819,-0.26708984,-0.15777588,1.0077515,0.609375,0.890625,0.125
1696291980848,-0.2578125,-0.1716919,1.0057983,0.046875,0.34375,0.015625
1696291980896,-0.25683594,-0.16412354,1.010437,0.34375,0.53125,0.234375
1696291980925,-0.2541504,-0.15997314,1.0111694,0.59375,0.671875,0.21875
1696291980972,-0.25268555,-0.16900635,1.0062866,0.59375,0.140625,0.296875
1696291981016,-0.24804688,-0.1572876,1.027771,2.15625,1.234375,-0.09375
1696291981045,-0.2590332,-0.1716919,1.0094604,-0.0625,-0.265625,0.359375
1696291981090,-0.26245117,-0.17681885,1.0101929,-2.3125,-1.375,0.171875
1696291981121,-0.24194336,-0.15899658,1.007019,0.859375,1.265625,0.125
1696291981164,-0.2548828,-0.16998291,1.0202026,1.25,1.171875,0.46875
1696291981211,-0.24633789,-0.16973877,1.0167847,0.078125,-0.3125,0.140625
1696291981240,-0.24169922,-0.17486572,1.0148315,0.15625,-0.40625,0.109375
1696291981286,-0.24829102,-0.16680908,1.0148315,-0.203125,-0.078125,0.0625
1696291981315,-0.24047852,-0.18292236,1.0060425,0.15625,0.140625,0.296875
1696291981358,-0.24243164,-0.17999268,1.013855,-0.0625,-0.734375,0.03125
1696291981405,-0.23461914,-0.17755127,1.0216675,-0.25,-0.140625,0.109375
1696291981434,-0.23754883,-0.17486572,1.0165405,-0.015625,-0.34375,0.078125
1696291981479,-0.24414062,-0.18243408,1.0162964,0.15625,-0.375,0.296875
1696291981556,-0.2434082,-0.1819458,1.010437,-0.234375,-0.875,0.15625
1696291981559,-0.24145508,-0.18463135,1.0182495,-0.453125,-0.484375,0.234375
1696291981600,-0.24584961,-0.17901611,1.0106812,-0.6875,-0.671875,0.265625
1696291981629,-0.2355957,-0.18145752,1.0158081,-0.171875,-0.640625,0.234375
1696291981675,-0.24047852,-0.17510986,1.0062866,-0.71875,-1.0625,0.171875
1696291981720,-0.23266602,-0.18951416,1.0236206,1.4375,-0.078125,-0.234375
1696291981750,-0.23828125,-0.18023682,1.0060425,-1.3125,-1.640625,0.15625
1696291981797,-0.24243164,-0.18902588,1.0119019,-2.21875,-2.046875,-0.125
1696291981826,-0.23632812,-0.18048096,1.0136108,0.171875,0.15625,0.109375
1696291981870,-0.24731445,-0.17633057,1.0158081,-0.296875,-0.34375,0.375
1696291981916,-0.23242188,-0.18048096,1.017273,-0.28125,-0.8125,0.078125
1696291981945,-0.24267578,-0.18023682,1.0092163,-0.515625,-1.015625,0.0625
1696291981990,-0.23730469,-0.17779541,1.0189819,0.1875,-0.734375,0.0
1696291982020,-0.2434082,-0.17803955,1.0123901,-0.296875,-1.28125,0.09375
1696291982065,-0.24389648,-0.18902588,1.0238647,-0.859375,-2.9375,-0.140625
1696291982111,-0.24291992,-0.18145752,1.0184937,-1.046875,-2.859375,-0.21875
1696291982139,-0.24902344,-0.18023682,1.0084839,-1.46875,-3.25,-0.078125
1696291982184,-0.25195312,-0.18414307,1.0075073,-1.1875,-2.859375,0.171875
1696291982232,-0.25390625,-0.18560791,1.0106812,-1.34375,-3.0,-0.15625
1696291982261,-0.26220703,-0.18243408,1.0111694,-1.328125,-2.71875,-0.03125
1696291982305,-0.25073242,-0.17193604,1.0077515,-2.125,-2.828125,0.09375
1696291982334,-0.26220703,-0.17242432,1.0133667,-1.046875,-2.359375,0.09375
1696291982379,-0.2578125,-0.16827393,0.9996948,-2.5625,-3.34375,-0.015625
1696291982428,-0.2614746,-0.17608643,1.0119019,-0.828125,-2.359375,-0.078125
1696291982454,-0.26464844,-0.17047119,1.0014038,-3.140625,-3.09375,0.140625
1696291982501,-0.26757812,-0.17364502,1.0077515,-2.546875,-2.953125,0.09375
1696291982529,-0.26757812,-0.159729,1.0101929,-0.4375,-1.421875,0.09375
1696291982577,-0.27539062,-0.1609497,1.0109253,-1.0625,-1.90625,0.078125
1696291982621,-0.27563477,-0.16607666,1.0116577,-1.71875,-2.859375,-0.015625
1696291982649,-0.27954102,-0.175354,1.0082397,-3.0625,-3.734375,-0.09375
1696291982695,-0.28735352,-0.16656494,1.0126343,-1.03125,-1.9375,-0.109375
1696291982740,-0.28271484,-0.1428833,1.0006714,-1.859375,-2.390625,0.09375
1696291982770,-0.2866211,-0.16265869,1.013855,-1.578125,-2.140625,0.1875
1696291982814,-0.27905273,-0.15216064,1.0055542,-1.78125,-2.515625,0.015625
1696291982846,-0.2944336,-0.14654541,1.0043335,-2.09375,-2.484375,-0.109375
1696291982889,-0.29003906,-0.15289307,1.0094604,-1.546875,-2.21875,0.0
1696291982934,-0.2956543,-0.15386963,1.0048218,-2.421875,-2.140625,-0.015625
1696291982964,-0.2956543,-0.15386963,1.0082397,-1.8125,-1.765625,0.0625
1696291983012,-0.29101562,-0.1494751,1.0065308,-1.28125,-1.828125,-0.03125
1696291983085,-0.29638672,-0.1494751,1.0131226,-0.953125,-1.828125,0.125
1696291983088,-0.29711914,-0.13677979,1.0197144,-1.3125,-1.84375,-0.375
1696291983130,-0.3022461,-0.14654541,1.0001831,-1.0,-1.453125,0.0625
1696291983159,-0.29760742,-0.15045166,1.012146,-2.796875,-2.359375,-0.390625
1696291983206,-0.29956055,-0.1453247,1.0055542,-1.015625,-1.96875,0.0
1696291983234,-0.30371094,-0.13360596,1.0004272,-0.8125,-1.203125,0.28125
1696291983281,-0.30615234,-0.13336182,1.007019,-1.28125,-1.59375,0.03125
1696291983326,-0.30395508,-0.14093018,1.0097046,-1.34375,-1.828125,-0.015625
1696291983384,-0.30615234,-0.1375122,1.0062866,-2.234375,-2.125,-0.0625
1696291983400,-0.3076172,-0.13702393,1.0048218,-0.5,-1.015625,0.171875
1696291983475,-0.31079102,-0.14141846,1.0143433,-0.78125,-1.46875,-0.0625
1696291983478,-0.3059082,-0.13433838,1.0097046,-1.328125,-2.0625,0.125
1696291983521,-0.30566406,-0.13970947,0.99993896,-1.78125,-2.15625,-0.03125
1696291983566,-0.31347656,-0.128479,1.0084839,-0.875,-1.40625,-0.03125
1696291983594,-0.31469727,-0.13458252,1.0109253,-1.234375,-1.3125,0.21875
1696291983640,-0.31396484,-0.13580322,1.0009155,-1.890625,-1.953125,0.1875
1696291983671,-0.31225586,-0.13067627,1.0045776,-1.546875,-1.703125,-0.046875
1696291983715,-0.31420898,-0.12286377,1.0060425,-0.546875,-1.09375,0.109375
1696291983744,-0.31030273,-0.121154785,0.9923706,-1.75,-1.515625,0.03125
1696291983789,-0.3088379,-0.13287354,1.0119019,0.515625,-0.09375,-0.09375
1696291983835,-0.31567383,-0.12652588,0.98602295,-2.53125,-0.875,0.25
1696291983882,-0.31347656,-0.13653564,1.0116577,-1.140625,-0.953125,0.140625
1696291983909,-0.30541992,-0.12335205,0.9989624,-0.328125,0.109375,0.390625
1696291983938,-0.31054688,-0.12628174,1.0023804,0.015625,0.65625,0.40625
1696291983985,-0.3046875,-0.1296997,1.0031128,0.4375,0.5625,0.015625
1696291984030,-0.30566406,-0.1260376,0.9957886,0.015625,0.796875,-0.046875
1696291984061,-0.30151367,-0.1260376,1.0148315,1.40625,2.59375,-0.03125
1696291984105,-0.29711914,-0.13067627,0.99432373,2.078125,3.0625,0.375
1696291984182,-0.29956055,-0.14630127,1.0123901,1.453125,2.21875,0.53125
1696291984184,-0.28735352,-0.1428833,1.0089722,2.40625,2.75,0.3125
1696291984224,-0.28051758,-0.14117432,1.0077515,2.078125,2.453125,0.15625
1696291984254,-0.2854004,-0.15289307,1.0158081,2.25,1.75,-0.015625
1696291984301,-0.27685547,-0.15899658,1.0094604,1.015625,1.21875,0.015625
1696291984344,-0.28027344,-0.15411377,1.0177612,0.78125,0.875,0.171875
1696291984375,-0.27416992,-0.1506958,1.0084839,0.234375,0.921875,0.109375
1696291984420,-0.27172852,-0.15435791,1.0189819,2.015625,1.640625,0.34375
1696291984450,-0.26757812,-0.1494751,1.0009155,-0.515625,0.6875,-0.015625
1696291984499,-0.26464844,-0.17047119,1.0167847,2.703125,1.375,-0.078125
1696291984538,-0.26293945,-0.16558838,1.0040894,-0.953125,-0.5625,0.078125
1696291984569,-0.27270508,-0.16778564,1.0018921,-0.984375,0.171875,0.15625
1696291984614,-0.2626953,-0.16070557,1.0114136,2.078125,2.359375,0.328125
1696291984646,-0.25927734,-0.17315674,1.0177612,1.390625,1.78125,0.28125
1696291984691,-0.25439453,-0.1741333,1.0175171,0.625,0.421875,0.328125
1696291984736,-0.25195312,-0.17364502,1.015564,0.140625,-0.15625,-0.015625
1696291984764,-0.24365234,-0.17486572,1.013855,1.09375,0.59375,0.015625
1696291984813,-0.25170898,-0.17242432,1.0126343,0.28125,0.53125,0.140625
1696291984854,-0.2512207,-0.1831665,1.0192261,-0.625,-0.515625,0.140625
1696291984884,-0.23852539,-0.1819458,1.0170288,0.140625,-0.046875,0.046875
1696291984930,-0.24975586,-0.17144775,1.0180054,0.078125,0.0,0.21875
1696291984959,-0.2475586,-0.17608643,1.0150757,0.1875,0.125,0.171875
1696291985006,-0.23876953,-0.17584229,1.0140991,-0.4375,-0.328125,0.109375
1696291985050,-0.24975586,-0.17999268,1.012146,-0.03125,-0.28125,0.203125
1696291985096,-0.24023438,-0.17608643,1.015564,-0.234375,-0.34375,-0.0625
1696291985126,-0.24121094,-0.1795044,1.0253296,0.96875,-0.265625,0.328125
1696291985155,-0.24658203,-0.17364502,1.0036011,-1.5,-0.9375,0.140625
1696291985199,-0.23925781,-0.18804932,1.0192261,0.5625,-0.40625,0.125
1696291985245,-0.24731445,-0.17437744,1.0187378,-1.796875,-1.734375,0.265625
1696291985274,-0.24291992,-0.18170166,1.007019,-1.171875,-1.25,-0.03125
1696291985319,-0.24291992,-0.1795044,1.0189819,1.015625,0.328125,0.453125
1696291985364,-0.23876953,-0.1807251,1.0175171,-0.625,-0.75,0.34375
1696291985394,-0.23730469,-0.18243408,1.0119019,-0.40625,-1.203125,-0.015625
1696291985456,-0.24169922,-0.1819458,1.0099487,-0.65625,-1.296875,0.046875
1696291985468,-0.24316406,-0.18560791,1.0192261,0.34375,-0.84375,-0.109375
1696291985516,-0.24609375,-0.17608643,1.010437,-0.640625,-0.96875,0.0625
1696291985559,-0.2421875,-0.19122314,1.0206909,-0.609375,-1.625,0.015625
1696291985607,-0.23754883,-0.17486572,1.0153198,-0.328125,-1.171875,-0.015625
1696291985634,-0.2434082,-0.18365479,1.0180054,-0.28125,-1.546875,0.0625
1696291985664,-0.24145508,-0.17999268,1.0180054,-0.703125,-2.53125,-0.0625
1696291985711,-0.2446289,-0.1885376,1.0123901,-1.34375,-2.921875,0.0
1696291985754,-0.25439453,-0.1765747,1.0197144,-1.265625,-2.8125,-0.03125
1696291985787,-0.25268555,-0.17901611,1.0145874,-1.46875,-3.125,0.109375
1696291985830,-0.2553711,-0.18145752,1.0153198,-1.5,-3.65625,0.15625
1696291985859,-0.25805664,-0.16827393,1.0228882,-0.921875,-2.828125,-0.421875
1696291985905,-0.26391602,-0.18096924,1.0014038,-2.234375,-3.0625,0.15625
1696291985949,-0.2722168,-0.18365479,1.0177612,-3.875,-3.546875,-0.125
1696291985979,-0.2631836,-0.17315674,1.0079956,-0.953125,-1.75,0.015625
1696291986025,-0.2763672,-0.15875244,1.0131226,-0.71875,-1.671875,0.203125
1696291986071,-0.26660156,-0.16925049,1.007019,-1.640625,-2.65625,-0.125
1696291986100,-0.27172852,-0.16314697,1.0038452,-2.15625,-2.921875,-0.046875
1696291986148,-0.27539062,-0.1638794,1.0114136,-2.4375,-2.734375,-0.0625
1696291986174,-0.28125,-0.16778564,1.0065308,-2.125,-2.046875,0.21875
1696291986221,-0.2758789,-0.16070557,1.0204468,-1.90625,-2.21875,-0.15625
1696291986266,-0.28051758,-0.15924072,1.0082397,-2.25,-2.40625,0.15625
1696291986294,-0.28295898,-0.15484619,1.0099487,-2.109375,-2.6875,0.015625
1696291986342,-0.28637695,-0.15679932,1.0114136,-1.421875,-2.09375,0.046875
1696291986369,-0.28588867,-0.1506958,1.0089722,-1.84375,-2.296875,-0.03125
1696291986416,-0.2932129,-0.15338135,1.0057983,-2.328125,-2.234375,-0.078125
1696291986460,-0.28442383,-0.15362549,1.0033569,-1.703125,-2.0,-0.015625
1696291986489,-0.28442383,-0.15386963,1.0079956,-1.328125,-1.78125,0.0625
1696291986537,-0.2932129,-0.144104,1.0043335,-1.875,-2.40625,0.015625
1696291986564,-0.29541016,-0.15411377,1.0082397,-0.671875,-1.875,-0.125
1696291986611,-0.29077148,-0.1494751,0.9916382,-3.640625,-2.453125,0.078125
1696291986656,-0.29589844,-0.15386963,1.0099487,-2.640625,-2.75,-0.03125
1696291986685,-0.29223633,-0.13995361,1.0011597,-0.75,-1.84375,-0.015625
1696291986730,-0.30541992,-0.13946533,1.0018921,-1.421875,-1.75,0.0625
1696291986773,-0.2956543,-0.13775635,1.0065308,-1.46875,-1.78125,0.015625
1696291986804,-0.29785156,-0.13775635,0.99823,-2.140625,-2.21875,-0.171875
1696291986849,-0.29882812,-0.14117432,1.0097046,-0.078125,-0.640625,-0.046875
1696291986881,-0.29882812,-0.12896729,1.007019,-1.140625,-1.21875,0.125
1696291986925,-0.30859375,-0.14239502,1.0148315,-1.296875,-1.6875,0.0625
1696291986970,-0.29833984,-0.13287354,1.0089722,-1.234375,-1.546875,-0.09375
1696291986998,-0.31298828,-0.12945557,1.0065308,-1.640625,-1.578125,0.015625
1696291987045,-0.30322266,-0.13238525,1.0050659,-0.96875,-1.40625,0.09375
1696291987074,-0.30395508,-0.13970947,1.0018921,-1.078125,-1.84375,0.015625
1696291987120,-0.31396484,-0.1350708,0.9996948,-1.703125,-1.921875,0.09375
1696291987165,-0.31054688,-0.13067627,0.99798584,-1.390625,-1.28125,0.03125
1696291987194,-0.31689453,-0.1428833,1.0084839,-0.234375,-1.0,0.453125
1696291987239,-0.3059082,-0.12530518,1.0158081,0.078125,-0.609375,-0.28125
1696291987269,-0.30688477,-0.13604736,0.99749756,-0.53125,-0.5,0.15625
1696291987314,-0.30737305,-0.13922119,1.0140991,-1.484375,-1.296875,-0.1875
1696291987361,-0.31152344,-0.12945557,1.0062866,-0.1875,-0.6875,0.078125
1696291987389,-0.3190918,-0.12237549,1.0043335,-0.09375,0.03125,0.390625
1696291987468,-0.3076172,-0.12799072,1.008728,-0.40625,-0.5625,0.0625
1696291987510,-0.30395508,-0.13409424,1.0011597,-0.4375,-0.484375,-0.015625
1696291987512,-0.30249023,-0.13116455,1.0009155,-1.109375,0.078125,0.0
1696291987553,-0.30517578,-0.13360596,1.0004272,0.671875,1.1875,0.34375
1696291987584,-0.2998047,-0.1326294,1.0067749,1.53125,1.640625,0.0
1696291987629,-0.2980957,-0.13531494,1.0140991,1.765625,2.078125,0.171875
1696291987677,-0.29907227,-0.1338501,1.0057983,2.03125,2.203125,0.0
1696291987704,-0.2902832,-0.14361572,1.008728,2.546875,3.015625,0.109375
1696291987752,-0.2841797,-0.14215088,1.0123901,2.0,2.8125,0.0625
1696291987780,-0.28027344,-0.1519165,1.012146,1.453125,2.46875,0.296875
1696291987827,-0.28076172,-0.15118408,1.0077515,1.734375,2.171875,0.3125
1696291987871,-0.2758789,-0.15460205,1.0160522,2.34375,2.3125,0.3125
1696291987899,-0.2680664,-0.15631104,1.0119019,0.578125,0.578125,0.328125
1696291987962,-0.26660156,-0.15875244,1.0228882,2.34375,1.34375,-0.1875
1696291987989,-0.26635742,-0.16241455,1.007019,-0.671875,-0.5,0.40625
1696291988020,-0.27197266,-0.17364502,1.010437,-2.15625,-0.546875,0.375
1696291988066,-0.26367188,-0.15997314,1.0082397,1.140625,1.828125,0.203125
1696291988094,-0.2614746,-0.16363525,1.008728,1.9375,1.71875,0.46875
1696291988142,-0.26049805,-0.1741333,1.0170288,0.75,0.765625,0.203125
1696291988185,-0.25195312,-0.17486572,1.012146,0.359375,0.78125,0.140625
1696291988213,-0.25952148,-0.17047119,1.0192261,1.53125,1.046875,0.0
1696291988277,-0.25048828,-0.17218018,1.0109253,0.359375,0.359375,0.078125
1696291988288,-0.24926758,-0.1819458,1.0182495,-0.28125,-0.1875,0.296875
1696291988335,-0.24389648,-0.17730713,1.0189819,0.03125,0.03125,0.15625
1696291988380,-0.24804688,-0.17120361,1.0160522,0.1875,0.078125,0.109375
1696291988410,-0.25073242,-0.17779541,1.0180054,0.53125,0.421875,0.203125
1696291988457,-0.23901367,-0.18145752,1.0082397,-0.359375,-0.109375,0.109375
1696291988485,-0.24316406,-0.18511963,1.0170288,0.25,-0.140625,0.203125
1696291988529,-0.24414062,-0.18243408,1.0123901,0.078125,0.0,0.171875
1696291988576,-0.24243164,-0.18829346,1.0216675,1.25,0.03125,0.28125
1696291988605,-0.24389648,-0.17242432,1.0114136,-1.046875,-0.546875,0.0625
1696291988650,-0.23828125,-0.18951416,1.0165405,0.734375,-0.40625,0.140625
1696291988696,-0.24633789,-0.19366455,1.015564,-1.59375,-1.921875,-0.03125
1696291988726,-0.23925781,-0.18609619,1.0092163,-0.765625,-0.515625,-0.03125
1696291988770,-0.24487305,-0.17681885,1.0189819,0.9375,0.59375,0.359375
1696291988801,-0.23901367,-0.18341064,1.0136108,-0.4375,-0.609375,0.21875
1696291988846,-0.22973633,-0.1831665,1.0143433,-0.140625,-0.65625,0.03125
1696291988891,-0.24047852,-0.18585205,1.0126343,-0.75,-0.84375,0.203125
1696291988919,-0.23632812,-0.19805908,1.0153198,0.5,-0.1875,0.078125
1696291988967,-0.24145508,-0.17852783,1.0148315,-0.1875,-0.34375,0.078125
1696291988995,-0.2434082,-0.19415283,1.0150757,-0.625,-0.734375,0.1875
1696291989042,-0.22998047,-0.18951416,1.0197144,-0.265625,-0.578125,0.265625
1696291989085,-0.23754883,-0.18365479,1.0114136,-0.3125,-0.734375,0.15625
1696291989114,-0.23876953,-0.18023682,1.0067749,-0.625,-1.265625,0.09375
1696291989176,-0.23120117,-0.19244385,1.0184937,-0.5,-1.265625,-0.078125
1696291989189,-0.2319336,-0.19049072,1.0241089,-0.359375,-2.203125,0.125
1696291989252,-0.23413086,-0.18829346,1.0214233,-0.625,-3.265625,-0.09375
1696291989279,-0.23901367,-0.19073486,1.0136108,-1.078125,-3.84375,0.046875
1696291989312,-0.24975586,-0.175354,1.0189819,-1.140625,-2.9375,-0.421875
1696291989356,-0.24853516,-0.18780518,1.0062866,-1.390625,-3.1875,0.15625
1696291989400,-0.24707031,-0.19683838,1.0106812,-3.78125,-4.296875,-0.078125
1696291989429,-0.24731445,-0.17974854,1.0192261,-1.234375,-2.5,-0.03125
1696291989475,-0.2692871,-0.1716919,1.0043335,-1.546875,-2.5,0.34375
1696291989505,-0.2631836,-0.17437744,1.0123901,-2.1875,-3.1875,-0.015625
1696291989550,-0.26660156,-0.17779541,1.0079956,-2.28125,-3.21875,-0.15625
1696291989596,-0.26904297,-0.17120361,1.0060425,-2.765625,-3.03125,0.078125
1696291989625,-0.26733398,-0.17144775,1.0021362,-2.0625,-2.203125,0.140625
1696291989687,-0.2680664,-0.16436768,1.0075073,-2.046875,-2.53125,-0.015625
1696291989700,-0.27246094,-0.17266846,1.0167847,-1.703125,-2.25,0.0
1696291989745,-0.27612305,-0.16485596,1.0065308,-1.890625,-2.78125,-0.03125
1696291989789,-0.28710938,-0.16729736,1.0028687,-1.96875,-2.828125,0.109375
1696291989834,-0.28173828,-0.1585083,1.0045776,-2.609375,-2.828125,-0.03125
1696291989865,-0.28393555,-0.1663208,1.0011597,-2.25,-2.390625,0.03125
1696291989895,-0.28271484,-0.15289307,1.0079956,-2.3125,-2.546875,0.125
1696291989943,-0.28393555,-0.1506958,1.0092163,-1.9375,-2.328125,0.0625
1696291989984,-0.29003906,-0.14874268,1.007019,-2.4375,-2.59375,0.0625
1696291990016,-0.29370117,-0.1585083,1.017273,-0.203125,-1.375,-0.109375
1696291990059,-0.29345703,-0.15924072,0.99505615,-3.75,-2.875,0.0625
1696291990121,-0.29345703,-0.15167236,1.010437,-2.953125,-2.703125,-0.0625
1696291990135,-0.3017578,-0.14385986,1.0072632,-0.84375,-1.6875,0.09375
1696291990183,-0.3034668,-0.14337158,1.0062866,-1.3125,-1.8125,0.28125
1696291990210,-0.29663086,-0.14337158,1.0050659,-1.71875,-2.09375,-0.046875
1696291990257,-0.2993164,-0.14703369,1.0043335,-1.90625,-2.046875,0.03125
1696291990299,-0.30126953,-0.1453247,1.0170288,-0.375,-1.25,-0.28125
1696291990329,-0.30419922,-0.13580322,1.0011597,-1.90625,-1.90625,-0.234375
1696291990375,-0.3059082,-0.14483643,1.0145874,-1.59375,-2.109375,0.09375
1696291990404,-0.30541992,-0.13946533,1.0067749,-1.53125,-1.75,-0.0625
1696291990452,-0.31030273,-0.12945557,1.0038452,-1.828125,-2.375,0.0
1696291990496,-0.30932617,-0.13482666,1.0028687,-1.484375,-1.875,0.046875
1696291990524,-0.30541992,-0.13897705,1.0048218,-2.0,-1.9375,0.203125
1696291990572,-0.31103516,-0.13238525,1.0036011,-2.1875,-2.109375,0.109375
1696291990617,-0.3112793,-0.12384033,1.0055542,-1.515625,-1.8125,0.15625
1696291990645,-0.3059082,-0.12872314,1.0031128,-2.0625,-2.125,0.203125
1696291990692,-0.30786133,-0.1296997,1.0180054,0.140625,-0.71875,-0.015625
1696291990735,-0.3203125,-0.13555908,0.99017334,-3.109375,-1.703125,0.234375
1696291990765,-0.32177734,-0.13995361,1.0106812,-2.609375,-2.546875,0.046875
1696291990809,-0.32006836,-0.12164307,1.0043335,-1.375,-1.421875,-0.015625
1696291990839,-0.32202148,-0.11993408,0.99676514,-1.15625,-1.125,0.28125
1696291990885,-0.30932617,-0.12628174,1.0048218,-0.890625,-1.546875,-0.078125
1696291990915,-0.3173828,-0.11578369,1.0018921,-1.375,-1.6875,-0.046875
1696291990960,-0.32080078,-0.11480713,1.010437,-0.953125,-1.15625,0.03125
1696291991006,-0.31958008,-0.11212158,0.99432373,-1.40625,-1.078125,0.15625
1696291991036,-0.32714844,-0.1260376,1.0175171,-1.171875,-1.6875,0.125
1696291991080,-0.32055664,-0.12188721,1.0062866,-1.546875,-1.765625,0.046875
1696291991110,-0.3256836,-0.11383057,1.0001831,-1.25,-1.34375,-0.09375
1696291991154,-0.32128906,-0.11383057,0.99920654,-1.03125,-1.3125,0.171875
1696291991202,-0.32226562,-0.120666504,1.001648,-1.28125,-1.171875,0.078125
1696291991229,-0.3239746,-0.11553955,1.0033569,-1.3125,-1.28125,0.0
1696291991275,-0.31713867,-0.112854004,0.99993896,-0.96875,-1.0,-0.171875
1696291991321,-0.3256836,-0.11993408,0.98846436,-1.0625,-0.734375,0.5
1696291991351,-0.3227539,-0.11065674,1.0165405,1.0625,0.46875,0.0
1696291991395,-0.32373047,-0.116760254,0.98309326,-1.453125,-0.171875,0.328125
1696291991425,-0.32080078,-0.12530518,1.010437,-0.78125,-0.9375,0.265625
1696291991472,-0.32177734,-0.11114502,0.996521,0.09375,0.359375,0.015625
1696291991516,-0.31713867,-0.10601807,1.001648,1.078125,1.375,0.53125
1696291991544,-0.3161621,-0.121154785,1.0089722,1.046875,1.6875,0.21875
1696291991592,-0.30932617,-0.12286377,0.99505615,0.46875,1.15625,0.15625
1696291991620,-0.30639648,-0.11529541,1.0075073,1.375,2.0625,0.09375
1696291991666,-0.30249023,-0.12017822,0.99823,1.84375,2.859375,0.359375
1696291991711,-0.30273438,-0.13360596,1.0158081,2.421875,2.078125,0.171875
1696291991740,-0.29541016,-0.13311768,1.015564,2.515625,1.765625,0.1875
1696291991786,-0.29223633,-0.1296997,1.0089722,0.96875,0.875,0.03125
1696291991815,-0.2944336,-0.13287354,1.0038452,1.296875,1.375,0.015625
1696291991862,-0.28442383,-0.14849854,1.0092163,1.46875,1.828125,0.0
1696291991904,-0.28344727,-0.15460205,1.0048218,1.21875,1.3125,0.234375
1696291991934,-0.2854004,-0.14727783,1.0097046,0.390625,0.625,0.109375
1696291991979,-0.28710938,-0.14898682,1.0206909,2.90625,1.40625,0.3125
1696291992024,-0.28222656,-0.14337158,1.015564,1.015625,0.640625,-0.015625
1696291992055,-0.2746582,-0.15533447,1.0109253,1.9375,0.5625,0.078125
1696291992099,-0.27563477,-0.16339111,1.0136108,-0.390625,-0.328125,-0.34375
1696291992130,-0.27246094,-0.16119385,1.0097046,1.625,1.390625,0.109375
1696291992174,-0.26757812,-0.14581299,1.0067749,1.359375,1.8125,0.59375
1696291992220,-0.27392578,-0.15509033,1.0170288,1.3125,1.28125,0.3125
1696291992248,-0.2631836,-0.16900635,1.0148315,0.96875,0.171875,0.171875
1696291992294,-0.26416016,-0.16851807,1.0092163,-0.46875,0.34375,0.109375
1696291992325,-0.26513672,-0.17315674,1.015564,1.28125,1.671875,0.140625
1696291992369,-0.26171875,-0.16363525,1.020935,1.0,0.765625,0.15625
1696291992415,-0.2536621,-0.16534424,1.0197144,0.203125,0.203125,0.140625
1696291992444,-0.25390625,-0.17047119,1.0111694,0.359375,0.703125,0.234375
1696291992504,-0.2578125,-0.17071533,1.0148315,0.5625,0.6875,0.359375
1696291992519,-0.25048828,-0.17486572,1.0143433,0.578125,0.234375,0.203125
1696291992567,-0.25024414,-0.17608643,1.0111694,-0.609375,-0.171875,0.296875
1696291992611,-0.25390625,-0.1729126,1.010437,-0.0625,0.140625,0.234375
1696291992639,-0.24584961,-0.16949463,1.0202026,0.53125,0.34375,0.296875
1696291992686,-0.24780273,-0.1716919,1.0109253,-0.578125,-0.484375,0.40625
1696291992729,-0.24145508,-0.18560791,1.0248413,1.96875,0.578125,-0.234375
1696291992774,-0.24487305,-0.17340088,1.0065308,-1.34375,-1.1875,0.390625
1696291992805,-0.25048828,-0.18927002,1.0097046,-2.203125,-1.546875,0.09375
1696291992834,-0.23901367,-0.175354,1.0128784,0.921875,0.71875,0.4375
1696291992881,-0.24291992,-0.17437744,1.0204468,0.3125,0.25,0.453125
1696291992925,-0.23730469,-0.17828369,1.0153198,-0.125,-0.59375,0.140625
1696291992956,-0.23950195,-0.18145752,1.0101929,-0.40625,-0.59375,0.171875
1696291993001,-0.24194336,-0.18023682,1.0160522,0.5,-0.1875,0.0625
1696291993029,-0.23852539,-0.17486572,1.0077515,-0.453125,-0.28125,0.234375
1696291993092,-0.23242188,-0.18951416,1.015564,-0.78125,-0.984375,0.203125
1696291993119,-0.2355957,-0.18560791,1.0184937,0.0,-0.390625,-0.015625
1696291993152,-0.23632812,-0.18170166,1.0109253,-0.296875,-0.84375,0.25
1696291993195,-0.24072266,-0.18048096,1.0180054,-0.21875,-0.890625,0.1875
1696291993226,-0.24023438,-0.1843872,1.010437,-0.78125,-1.0625,-0.046875
1696291993270,-0.24365234,-0.18756104,1.0148315,-0.390625,-0.921875,0.109375
1696291993315,-0.23583984,-0.18170166,1.0136108,-0.4375,-1.078125,0.15625
1696291993359,-0.23632812,-0.18927002,1.013855,0.203125,-1.5625,0.09375
1696291993389,-0.24291992,-0.1741333,1.0263062,0.34375,-1.1875,-0.21875
1696291993436,-0.24145508,-0.19342041,1.0114136,-0.5625,-2.09375,0.1875
1696291993464,-0.2487793,-0.19830322,1.0145874,-2.640625,-3.59375,-0.171875
1696291993513,-0.24121094,-0.17877197,1.0189819,-0.640625,-1.75,-0.234375
1696291993540,-0.25390625,-0.18365479,1.0158081,-0.171875,-1.65625,0.171875
1696291993585,-0.24829102,-0.17584229,1.013855,-1.296875,-3.078125,-0.296875
1696291993631,-0.24731445,-0.17437744,1.0133667,-1.828125,-3.203125,-0.109375
1696291993660,-0.25317383,-0.18658447,1.0075073,-1.875,-2.71875,0.0625
1696291993705,-0.25317383,-0.1819458,1.0033569,-1.71875,-2.109375,0.265625
1696291993735,-0.25756836,-0.17852783,1.0160522,-1.40625,-2.203125,-0.140625
1696291993780,-0.25976562,-0.17388916,1.0092163,-1.625,-2.5,-0.03125
1696291993827,-0.26489258,-0.17315674,1.0106812,-1.84375,-2.40625,0.078125
1696291993854,-0.26831055,-0.17437744,1.008728,-1.390625,-2.25,0.078125
1696291993901,-0.26171875,-0.1741333,1.0101929,-1.8125,-2.765625,0.015625
1696291993961,-0.27392578,-0.1729126,1.0062866,-2.328125,-2.546875,-0.078125
1696291993974,-0.26904297,-0.16314697,1.0128784,-1.8125,-2.078125,0.03125
1696291994019,-0.2800293,-0.16680908,1.017273,-0.765625,-1.828125,0.21875
1696291994049,-0.2709961,-0.15582275,1.0006714,-2.484375,-3.0,-0.234375
1696291994094,-0.2709961,-0.16827393,1.0057983,-0.640625,-1.8125,-0.09375
1696291994141,-0.2709961,-0.16412354,1.0123901,-3.46875,-2.78125,-0.0625
1696291994169,-0.27416992,-0.15753174,1.0075073,-1.890625,-2.078125,-0.140625
1696291994216,-0.2800293,-0.15557861,1.0060425,-0.53125,-1.171875,0.265625
1696291994245,-0.28027344,-0.1560669,1.008728,-1.296875,-1.765625,0.125
1696291994291,-0.27734375,-0.16290283,1.0106812,-1.40625,-2.0625,-0.15625
1696291994336,-0.28222656,-0.15826416,1.0028687,-2.421875,-2.484375,-0.078125
1696291994366,-0.28564453,-0.16461182,1.0075073,-1.109375,-1.765625,0.03125
1696291994409,-0.28564453,-0.14630127,1.007019,-1.296875,-1.65625,-0.15625
1696291994439,-0.2915039,-0.15753174,1.0082397,-1.421875,-1.859375,0.078125
1696291994487,-0.2902832,-0.15045166,0.99823,-1.84375,-2.1875,-0.03125
1696291994531,-0.2939453,-0.14508057,1.0111694,-1.0625,-1.734375,0.0625
1696291994558,-0.2919922,-0.14971924,1.0060425,-1.609375,-1.9375,0.140625
1696291994605,-0.29467773,-0.1531372,1.0033569,-2.28125,-2.296875,0.171875
1696291994651,-0.29638672,-0.14581299,1.007019,-1.703125,-2.03125,0.015625
1696291994680,-0.28637695,-0.13702393,1.0136108,-0.375,-1.296875,0.0
1696291994724,-0.28686523,-0.1350708,0.99823,-2.359375,-2.53125,0.0
1696291994755,-0.296875,-0.14703369,1.0119019,-0.171875,-1.078125,-0.125
1696291994800,-0.29760742,-0.14117432,0.99505615,-3.609375,-2.34375,-0.046875
1696291994846,-0.2939453,-0.14141846,1.0018921,-1.625,-2.046875,-0.125
1696291994874,-0.30029297,-0.14215088,1.0033569,-0.546875,-0.8125,0.265625
1696291994922,-0.30029297,-0.13189697,1.0026245,-1.0625,-1.4375,0.171875
1696291994949,-0.3017578,-0.13922119,1.0101929,-0.75,-1.53125,-0.03125
1696291994998,-0.2993164,-0.13677979,1.0011597,-1.90625,-2.046875,0.03125
1696291995041,-0.30664062,-0.14312744,1.010437,-0.21875,-0.984375,0.015625
1696291995069,-0.29785156,-0.13458252,1.0089722,-0.96875,-1.125,-0.15625
1696291995132,-0.3112793,-0.1428833,1.0075073,-0.5,-1.203125,0.265625
1696291995146,-0.2993164,-0.13238525,1.0057983,-0.890625,-1.40625,-0.125
1696291995189,-0.30517578,-0.13311768,1.0023804,-0.75,-0.53125,-0.015625
1696291995237,-0.30419922,-0.12799072,1.0057983,-0.21875,0.453125,0.15625
1696291995264,-0.31079102,-0.14019775,1.0026245,0.09375,0.71875,0.140625
1696291995341,-0.3046875,-0.13970947,1.0060425,-0.015625,0.453125,0.171875
1696291995354,-0.29711914,-0.13189697,1.0119019,1.265625,1.28125,-0.03125
1696291995385,-0.30004883,-0.124816895,0.99383545,0.171875,1.0625,0.21875
1696291995446,-0.29077148,-0.14190674,1.0077515,2.625,2.640625,-0.046875
1696291995459,-0.29003906,-0.14215088,1.0009155,-0.140625,0.90625,0.09375
1696291995505,-0.28930664,-0.16046143,1.013855,0.1875,0.921875,0.3125
1696291995549,-0.28466797,-0.14434814,1.0014038,1.71875,2.25,0.46875
1696291995580,-0.28100586,-0.1453247,1.0099487,2.078125,2.53125,0.328125
1696291995640,-0.27270508,-0.1560669,1.0221558,2.0625,1.890625,0.265625
1696291995654,-0.2692871,-0.16168213,1.0067749,0.203125,0.109375,-0.109375
1696291995701,-0.2746582,-0.16558838,1.0136108,1.96875,1.359375,-0.125
1696291995745,-0.26635742,-0.15289307,1.00531,0.578125,0.796875,-0.0625
1696291995775,-0.26220703,-0.16485596,1.0150757,0.359375,0.8125,0.34375
1696291995820,-0.26245117,-0.17047119,1.0175171,1.125,0.8125,0.078125
1696291995850,-0.26098633,-0.16168213,1.0126343,0.5625,0.640625,0.28125
1696291995895,-0.26367188,-0.1675415,1.0114136,0.59375,0.765625,0.25
1696291995956,-0.25585938,-0.16949463,1.0116577,-0.265625,0.375,0.28125
1696291995969,-0.25585938,-0.17926025,1.0160522,0.546875,0.625,0.359375
1696291996015,-0.24780273,-0.17218018,1.0114136,-0.03125,0.09375,0.234375
1696291996060,-0.25268555,-0.17340088,1.0111694,0.0625,-0.3125,0.28125
1696291996089,-0.25,-0.16778564,1.0282593,1.90625,1.109375,-0.234375
1696291996135,-0.24975586,-0.18023682,1.0060425,-0.75,-0.484375,0.28125
1696291996165,-0.25146484,-0.18389893,1.0079956,-2.296875,-1.453125,0.234375
1696291996210,-0.24047852,-0.16973877,1.010437,0.6875,1.140625,0.328125
1696291996256,-0.25317383,-0.16998291,1.0187378,0.9375,1.0,0.328125
1696291996285,-0.24511719,-0.18243408,1.0158081,0.0,-0.453125,0.125
1696291996332,-0.24731445,-0.18218994,1.013855,-0.3125,-0.75,0.03125
1696291996360,-0.24707031,-0.17608643,1.0175171,0.140625,0.078125,0.1875
1696291996404,-0.23730469,-0.18267822,1.0031128,-0.28125,0.046875,0.203125
1696291996449,-0.23828125,-0.18609619,1.0184937,-0.390625,-0.59375,0.015625
1696291996481,-0.24121094,-0.19122314,1.0202026,0.015625,0.0625,0.109375
1696291996524,-0.23779297,-0.17730713,1.0158081,-0.171875,-0.515625,0.25
1696291996570,-0.2409668,-0.18218994,1.0114136,-0.28125,-0.578125,0.125
1696291996600,-0.23950195,-0.18389893,1.0082397,-0.40625,-0.65625,0.125
1696291996644,-0.23999023,-0.18487549,1.0109253,-0.234375,-0.59375,0.03125
1696291996675,-0.2368164,-0.1819458,1.0126343,-0.390625,-0.734375,0.171875
1696291996720,-0.23706055,-0.1819458,1.024353,0.875,-0.625,0.28125
1696291996768,-0.25146484,-0.17926025,1.0189819,-0.9375,-1.046875,-0.0625
1696291996795,-0.23754883,-0.19244385,1.0194702,0.1875,-0.90625,0.359375
1696291996839,-0.24194336,-0.18927002,1.0167847,-1.75,-2.03125,-0.046875
1696291996872,-0.23828125,-0.18292236,1.0133667,-0.921875,-1.046875,-0.0625
1696291996915,-0.24414062,-0.18365479,1.0114136,0.484375,0.046875,0.5625
1696291996961,-0.24389648,-0.17706299,1.0160522,-0.59375,-0.921875,-0.015625
1696291996988,-0.23339844,-0.18267822,1.013855,-0.546875,-1.015625,0.15625
1696291997035,-0.23901367,-0.1897583,1.0094604,-0.859375,-1.125,0.015625
1696291997065,-0.23632812,-0.19244385,1.0184937,-0.015625,-0.96875,0.25
1696291997111,-0.24267578,-0.18096924,1.0116577,-0.25,-0.875,-0.0625
1696291997155,-0.23876953,-0.18707275,1.0214233,-0.640625,-1.421875,0.015625
1696291997184,-0.23461914,-0.18560791,1.0131226,-0.703125,-1.953125,0.015625
1696291997230,-0.24633789,-0.18560791,1.0214233,-0.484375,-1.875,0.0
1696291997274,-0.2397461,-0.18292236,1.0133667,-1.09375,-2.828125,-0.03125
1696291997304,-0.24511719,-0.18487549,1.007019,-2.03125,-3.109375,-0.03125
1696291997351,-0.25146484,-0.18389893,1.0145874,-1.921875,-2.578125,0.015625
1696291997380,-0.2475586,-0.18609619,1.0167847,-0.984375,-2.15625,0.03125
1696291997425,-0.25146484,-0.18511963,1.013855,-1.0625,-2.859375,0.109375
1696291997470,-0.2602539,-0.16949463,1.0219116,-0.4375,-2.078125,-0.421875
1696291997499,-0.26098633,-0.1897583,1.0057983,-1.640625,-2.640625,0.328125
1696291997545,-0.26098633,-0.18511963,1.0136108,-3.59375,-3.203125,-0.109375
1696291997576,-0.2536621,-0.17755127,1.0084839,-0.6875,-1.15625,0.015625
1696291997620,-0.26416016,-0.16827393,1.0150757,-0.625,-1.421875,0.375
1696291997666,-0.25830078,-0.17095947,1.0094604,-1.5,-2.296875,-0.109375
1696291997695,-0.25878906,-0.17071533,1.0106812,-1.4375,-2.0,-0.15625
1696291997740,-0.2619629,-0.17633057,1.0043335,-2.0625,-2.28125,0.015625
1696291997769,-0.26391602,-0.1675415,1.0001831,-1.390625,-1.875,0.109375
1696291997816,-0.27612305,-0.1729126,1.0160522,-1.828125,-2.25,-0.140625
1696291997859,-0.27124023,-0.16900635,1.0131226,-1.46875,-1.78125,0.09375
1696291997890,-0.27001953,-0.15777588,1.007019,-1.734375,-2.453125,-0.03125
1696291997936,-0.2824707,-0.16729736,1.0065308,-1.640625,-2.1875,-0.015625
1696291998011,-0.27612305,-0.16265869,1.0043335,-1.640625,-2.0,0.03125
1696291998016,-0.2783203,-0.16070557,1.0082397,-2.109375,-2.171875,0.234375
1696291998055,-0.27246094,-0.1609497,1.0072632,-1.671875,-2.046875,0.09375
1696291998085,-0.27734375,-0.1519165,1.0099487,-0.984375,-1.578125,0.15625
1696291998132,-0.27148438,-0.15826416,1.0028687,-1.84375,-2.34375,0.078125
1696291998176,-0.2800293,-0.16461182,1.0165405,-0.03125,-1.203125,-0.046875
1696291998205,-0.28222656,-0.15875244,0.98895264,-3.484375,-2.390625,0.234375
1696291998250,-0.2836914,-0.16412354,1.0062866,-2.546875,-2.046875,0.09375
1696291998280,-0.28271484,-0.15338135,1.0067749,-0.515625,-0.78125,0.140625
1696291998327,-0.28857422,-0.14605713,1.008728,-0.75,-0.953125,0.265625
1696291998369,-0.2775879,-0.15997314,1.0077515,-0.765625,-1.640625,-0.015625
1696291998399,-0.2841797,-0.15167236,1.0062866,-1.484375,-1.734375,-0.09375
1696291998444,-0.28930664,-0.15093994,1.0184937,-0.171875,-0.890625,-0.171875
1696291998474,-0.28637695,-0.15142822,1.0023804,-0.984375,-1.03125,-0.046875
1696291998519,-0.28515625,-0.16461182,1.0177612,-0.90625,-1.09375,0.25
1696291998565,-0.28442383,-0.15679932,1.0092163,-0.671875,-0.75,-0.078125
1696291998594,-0.28930664,-0.15240479,1.0045776,-0.828125,-0.671875,0.078125
1696291998640,-0.28735352,-0.1482544,1.0067749,-0.078125,-0.421875,0.15625
1696291998686,-0.28344727,-0.15899658,1.0028687,-0.296875,0.0625,0.125
1696291998716,-0.28051758,-0.15899658,1.0097046,-0.4375,-0.25,0.078125
1696291998761,-0.28149414,-0.15533447,1.0092163,-0.3125,-0.125,0.125
1696291998789,-0.28466797,-0.15045166,1.0143433,1.1875,0.5,0.203125
1696291998836,-0.27954102,-0.1453247,1.013855,-0.3125,0.046875,-0.078125
1696291998883,-0.2841797,-0.15655518,1.0077515,1.0,0.5,0.25
1696291998909,-0.27807617,-0.159729,1.0126343,-1.03125,-0.171875,0.015625
1696291998957,-0.2692871,-0.14971924,1.0065308,0.875,0.875,0.21875
1696291998985,-0.2783203,-0.15411377,1.0089722,2.078125,2.53125,0.4375
1696291999032,-0.27563477,-0.15826416,1.013855,1.34375,1.0625,0.140625
1696291999077,-0.26416016,-0.15997314,1.0097046,0.53125,0.328125,0.203125
1696291999106,-0.2685547,-0.16412354,1.0055542,-0.140625,0.65625,0.0625
1696291999168,-0.26464844,-0.18511963,1.0148315,1.703125,1.609375,0.28125
1696291999194,-0.25390625,-0.16217041,1.0094604,0.515625,0.328125,0.09375
1696291999225,-0.25610352,-0.17340088,1.0148315,0.40625,0.71875,0.15625
1696291999271,-0.25805664,-0.16998291,1.0092163,0.546875,0.453125,0.328125
1696291999300,-0.2578125,-0.17486572,1.0145874,0.1875,0.171875,0.078125
1696291999345,-0.2548828,-0.16998291,1.0116577,0.390625,0.359375,0.234375
1696291999390,-0.25,-0.17266846,1.0065308,-0.5625,0.25,0.0625
1696291999419,-0.2475586,-0.17877197,1.0128784,0.125,0.421875,0.25
1696291999464,-0.24291992,-0.17681885,1.0123901,0.390625,0.328125,0.171875
1696291999542,-0.23706055,-0.18463135,1.0099487,0.546875,0.015625,0.453125
1696291999544,-0.24511719,-0.1716919,1.0221558,1.328125,0.625,-0.234375
1696291999584,-0.24804688,-0.18658447,1.0082397,-0.328125,-0.484375,0.4375
1696291999614,-0.24365234,-0.18658447,1.0143433,-2.046875,-1.40625,0.078125
1696291999659,-0.23461914,-0.18389893,1.0109253,0.6875,0.96875,0.0
1696291999690,-0.24682617,-0.16998291,1.0182495,0.953125,0.953125,0.53125
1696291999737,-0.24267578,-0.1795044,1.0177612,0.03125,-0.171875,0.1875
1696291999782,-0.2290039,-0.18341064,1.0111694,-0.09375,-0.46875,0.0625
1696291999810,-0.24072266,-0.18634033,1.015564,-0.390625,-0.4375,-0.015625
1696291999854,-0.22924805,-0.18878174,1.0101929,-0.046875,0.03125,0.328125
1696291999901,-0.23706055,-0.1885376,1.0167847,-0.09375,-0.5,0.09375
1696291999930,-0.22753906,-0.1897583,1.0187378,-0.234375,-0.40625,-0.109375
1696291999976,-0.23364258,-0.18609619,1.015564,-0.296875,-0.71875,0.25
1696292000004,-0.23608398,-0.18365479,1.0133667,-0.234375,-0.625,0.140625
1696292000050,-0.22729492,-0.19268799,1.0221558,-0.203125,-0.859375,-0.015625
1696292000096,-0.23413086,-0.19244385,1.0106812,-0.5625,-0.625,0.234375
1696292000124,-0.23364258,-0.18463135,1.0126343,-0.890625,-0.90625,0.109375
1696292000172,-0.2331543,-0.19000244,1.0140991,-0.078125,-0.6875,0.15625
1696292000200,-0.22998047,-0.18634033,1.0082397,-0.859375,-1.078125,0.078125
1696292000245,-0.22192383,-0.19488525,1.0272827,1.140625,-0.625,-0.4375
1696292000289,-0.23266602,-0.19073486,1.0106812,-1.828125,-1.671875,0.15625
1696292000319,-0.23632812,-0.19293213,1.0079956,-2.203125,-1.96875,0.109375
1696292000364,-0.2331543,-0.19464111,1.0160522,0.234375,0.171875,0.25
1696292000395,-0.23632812,-0.18341064,1.0116577,-0.40625,-0.578125,0.28125
1696292000456,-0.23046875,-0.1831665,1.0145874,-0.53125,-0.953125,0.0
1696292000485,-0.23144531,-0.19146729,1.0126343,-0.796875,-1.140625,-0.09375
1696292000515,-0.23046875,-0.18145752,1.0187378,-0.0625,-0.5,-0.15625
1696292000559,-0.23339844,-0.19024658,1.0023804,-0.8125,-0.6875,0.078125
1696292000635,-0.23144531,-0.19537354,1.0162964,-0.546875,-1.078125,0.09375
1696292000637,-0.22802734,-0.19390869,1.0148315,-0.1875,-0.828125,-0.078125
1696292000680,-0.2355957,-0.1873169,1.010437,-1.09375,-1.6875,0.078125
1696292000709,-0.2368164,-0.1819458,1.0162964,-0.453125,-1.125,0.09375
1696292000755,-0.22802734,-0.18585205,1.012146,-0.53125,-1.453125,-0.015625
1696292000799,-0.23876953,-0.19073486,1.0128784,-0.359375,-0.703125,0.09375
1696292000829,-0.23510742,-0.18487549,1.0031128,-1.046875,-1.3125,0.21875
1696292000875,-0.23217773,-0.1921997,1.0133667,0.234375,-1.1875,0.09375
1696292000904,-0.2409668,-0.18048096,1.0060425,-1.703125,-1.578125,-0.15625
1696292000952,-0.23364258,-0.19171143,1.0187378,0.234375,-1.421875,0.015625
1696292000994,-0.24853516,-0.18804932,1.0092163,-2.34375,-2.078125,0.1875
1696292001024,-0.24169922,-0.1873169,1.0111694,-1.09375,-1.078125,0.078125
1696292001069,-0.24414062,-0.18487549,1.0165405,0.28125,-0.015625,0.359375
1696292001100,-0.24169922,-0.18951416,1.0160522,-1.03125,-1.078125,0.15625
1696292001146,-0.23754883,-0.19439697,1.0184937,-1.09375,-0.46875,0.3125
1696292001190,-0.24365234,-0.19488525,1.0148315,-0.21875,0.890625,0.1875
1696292001220,-0.2290039,-0.18878174,1.0111694,0.40625,-0.375,-0.109375
1696292001265,-0.23925781,-0.17071533,1.0072632,-0.828125,-1.828125,0.203125
1696292001309,-0.23828125,-0.19659424,1.0316772,0.640625,-0.953125,0.328125
1696292001339,-0.23706055,-0.19708252,1.0153198,-0.375,-1.96875,0.1875
1696292001385,-0.24047852,-0.1885376,1.0082397,-1.21875,-2.6875,-0.453125
1696292001414,-0.23925781,-0.18609619,1.0055542,-1.09375,-2.65625,-0.125
1696292001461,-0.2434082,-0.190979,1.0192261,-0.859375,-2.015625,-0.078125
1696292001505,-0.24487305,-0.19415283,1.0128784,-1.515625,-2.453125,0.1875
1696292001534,-0.25,-0.19390869,1.0131226,-1.078125,-1.921875,0.171875
1696292001581,-0.24975586,-0.17999268,1.0033569,-1.796875,-3.28125,-0.046875
1696292001609,-0.24731445,-0.18756104,1.0255737,0.59375,-1.125,-0.625
1696292001656,-0.2529297,-0.17999268,1.0075073,-2.078125,-2.484375,0.234375
1696292001700,-0.25610352,-0.1975708,1.0082397,-3.984375,-3.953125,0.0
1696292001731,-0.24780273,-0.17877197,1.0031128,-0.859375,-1.21875,0.09375
1696292001791,-0.2619629,-0.16973877,1.0072632,-0.84375,-1.484375,0.34375
1696292001820,-0.25830078,-0.17852783,1.0153198,-1.546875,-2.25,0.125
1696292001850,-0.2607422,-0.17388916,1.0038452,-1.71875,-2.34375,0.015625
1696292001896,-0.26123047,-0.17315674,1.0136108,-1.765625,-2.484375,-0.3125
1696292001924,-0.265625,-0.17193604,1.0038452,-1.78125,-1.75,0.0
1696292001969,-0.26733398,-0.17730713,1.0143433,-2.0,-2.15625,0.09375
1696292002016,-0.2619629,-0.17022705,1.0094604,-1.4375,-1.875,0.09375
1696292002044,-0.27197266,-0.16607666,1.0116577,-1.34375,-2.21875,-0.046875
1696292002091,-0.27148438,-0.16192627,1.0109253,-1.0625,-1.984375,0.015625
1696292002166,-0.27294922,-0.1638794,1.0114136,-1.859375,-1.859375,0.203125
1696292002171,-0.27539062,-0.16925049,1.0075073,-1.890625,-1.796875,0.015625
1696292002212,-0.27734375,-0.16534424,1.0082397,-1.1875,-1.609375,0.15625
1696292002241,-0.2746582,-0.16607666,1.0048218,-1.234375,-2.125,0.28125
1696292002285,-0.2722168,-0.15704346,1.0202026,0.125,-0.71875,-0.3125
1696292002315,-0.2775879,-0.16314697,1.0031128,-1.015625,-1.421875,0.125
1696292002360,-0.27539062,-0.17120361,1.0057983,-2.65625,-2.15625,-0.28125
1696292002406,-0.27929688,-0.15509033,1.0114136,-0.46875,-0.546875,0.046875
1696292002434,-0.2854004,-0.15753174,1.0114136,-0.125,-0.234375,0.46875
1696292002480,-0.27856445,-0.1638794,1.0099487,-0.4375,-1.078125,0.078125
1696292002557,-0.28564453,-0.15631104,1.0094604,-0.96875,-0.796875,-0.046875
1696292002559,-0.27734375,-0.16168213,1.007019,-0.796875,-0.453125,-0.015625
1696292002600,-0.27441406,-0.159729,0.99676514,-0.578125,-0.4375,0.21875
1696292002630,-0.27392578,-0.16070557,1.0055542,-0.5625,-0.515625,0.09375
1696292002676,-0.27416992,-0.15826416,1.0072632,-0.21875,-0.484375,0.265625
1696292002722,-0.27392578,-0.15899658,1.0009155,-0.890625,-0.546875,-0.046875
1696292002749,-0.27783203,-0.16070557,1.0075073,0.171875,-0.375,0.09375
1696292002794,-0.27001953,-0.15997314,1.0094604,-0.65625,-0.875,0.109375
1696292002825,-0.2775879,-0.16900635,1.0114136,-1.125,-1.296875,-0.1875
1696292002872,-0.27539062,-0.1572876,1.0075073,-0.859375,-1.375,0.078125
1696292002914,-0.27661133,-0.16143799,1.0148315,0.0625,-1.828125,0.1875
1696292002945,-0.28051758,-0.1506958,1.0202026,-0.484375,-1.703125,-0.40625
1696292002990,-0.28344727,-0.16339111,1.0119019,-0.546875,-1.953125,0.03125
1696292003019,-0.28881836,-0.1741333,1.0170288,-2.59375,-3.328125,-0.1875
1696292003069,-0.28149414,-0.159729,1.0101929,-2.03125,-3.65625,-0.125
1696292003110,-0.29418945,-0.15216064,1.0153198,-2.234375,-3.140625,0.15625
1696292003139,-0.29101562,-0.14923096,1.0067749,-4.046875,-3.59375,-0.125
1696292003186,-0.29052734,-0.15240479,0.9970093,-3.015625,-2.40625,-0.1875
1696292003261,-0.2956543,-0.15289307,1.0026245,-2.8125,-2.640625,-0.046875
1696292003264,-0.30297852,-0.14678955,0.9945679,-1.703125,-1.75,0.3125
1696292003322,-0.29858398,-0.13970947,1.0143433,-1.921875,-2.453125,-0.0625
1696292003334,-0.2956543,-0.14019775,1.0133667,-1.96875,-2.546875,0.09375
1696292003379,-0.30541992,-0.1404419,1.00531,-2.328125,-2.359375,-0.125
1696292003425,-0.30932617,-0.13043213,1.0031128,-2.359375,-2.25,0.015625
1696292003455,-0.30615234,-0.13775635,1.0040894,-1.984375,-1.890625,0.09375
1696292003500,-0.3154297,-0.12921143,1.0014038,-2.546875,-2.640625,0.0625
1696292003530,-0.31103516,-0.12506104,1.007019,-2.28125,-2.203125,-0.09375
1696292003574,-0.31079102,-0.12554932,1.0143433,-0.390625,-1.890625,0.15625
1696292003636,-0.30981445,-0.112854004,1.001648,-2.703125,-2.65625,-0.140625
1696292003650,-0.31225586,-0.12213135,1.0014038,-1.046875,-1.65625,-0.03125
1696292003694,-0.31811523,-0.121398926,1.0084839,-3.890625,-3.203125,-0.125
1696292003725,-0.31567383,-0.12164307,1.0072632,-2.0625,-2.71875,-0.046875
1696292003771,-0.32788086,-0.10870361,0.99554443,-1.90625,-1.390625,0.21875
1696292003817,-0.32348633,-0.1104126,1.0072632,-1.203125,-1.28125,0.375
1696292003844,-0.3178711,-0.11529541,1.001648,-1.515625,-1.703125,0.09375
1696292003907,-0.3227539,-0.11065674,0.99627686,-2.59375,-2.125,-0.21875
1696292003935,-0.33422852,-0.11260986,1.0021362,-0.1875,-0.78125,0.28125
1696292003965,-0.3244629,-0.10455322,1.0048218,-0.671875,-1.140625,0.078125
1696292004012,-0.3203125,-0.109680176,1.010437,-0.78125,-1.640625,-0.09375
1696292004054,-0.33276367,-0.10748291,0.9957886,-1.359375,-1.5,-0.046875
1696292004099,-0.3269043,-0.10211182,1.0006714,-0.9375,-0.890625,-0.046875
1696292004130,-0.33032227,-0.101867676,1.0018921,0.109375,0.078125,0.296875
1696292004159,-0.32128906,-0.10797119,0.99993896,-0.703125,-0.796875,0.296875
1696292004220,-0.32885742,-0.11260986,1.0004272,-1.015625,-0.5625,0.078125
1696292004241,-0.32177734,-0.10064697,1.0153198,0.71875,0.75,0.03125
1696292004281,-0.3239746,-0.101379395,1.001648,-0.25,-0.328125,0.359375
1696292004325,-0.3154297,-0.113586426,1.0123901,1.40625,1.1875,0.1875
1696292004354,-0.31860352,-0.10748291,0.99627686,-1.875,-0.359375,0.109375
