# Sensor type: Respeck
# Activity type: Lying down on left
# Activity subtype: Normal
# Subject id: s2094833
# Notes: 
timestamp,accel_x,accel_y,accel_z,gyro_x,gyro_y,gyro_z
1696291582209,-0.99365234,-0.24493408,0.20013428,1.296875,-4.09375,0.515625
1696291582256,-0.99487305,-0.24420166,0.20037842,0.015625,-3.796875,0.1875
1696291582283,-0.9855957,-0.24224854,0.19573975,0.609375,-5.9375,-0.171875
1696291582329,-0.998291,-0.23687744,0.18035889,0.03125,-7.328125,-0.4375
1696291582374,-0.9863281,-0.23809814,0.17596436,-0.4375,-6.859375,-0.25
1696291582404,-0.99121094,-0.25006104,0.1552124,-0.34375,-6.453125,-0.515625
1696291582448,-0.982666,-0.21759033,0.1605835,-0.359375,-2.78125,-0.921875
1696291582479,-1.0043945,-0.2420044,0.1605835,-4.890625,-3.640625,-0.609375
1696291582526,-1.0014648,-0.23834229,0.16107178,0.15625,-4.0625,0.109375
1696291582569,-0.97265625,-0.23883057,0.15130615,-0.90625,-2.734375,-1.078125
1696291582599,-1.0004883,-0.22711182,0.16009521,1.5625,-4.34375,-0.171875
1696291582644,-1.0002441,-0.23199463,0.13787842,-2.921875,-3.453125,-0.171875
1696291582674,-0.98095703,-0.21832275,0.12030029,0.0625,-2.734375,0.203125
1696291582719,-1.0007324,-0.23834229,0.13031006,0.921875,-4.109375,1.125
1696291582796,-0.9926758,-0.24102783,0.13690186,-1.203125,-3.078125,-0.21875
1696291582798,-0.9946289,-0.24591064,0.1383667,0.5,-4.40625,-0.3125
1696291582839,-1.001709,-0.237854,0.1359253,-0.796875,-3.40625,-0.53125
1696291582870,-1.0065918,-0.23297119,0.12542725,-1.25,-4.3125,-0.953125
1696291582914,-1.0002441,-0.23590088,0.10345459,-2.34375,-4.46875,-0.921875
1696291582958,-1.0009766,-0.22198486,0.12005615,-0.46875,-4.015625,-0.015625
1696291582989,-1.0075684,-0.23077393,0.109069824,-0.84375,-5.359375,0.671875
1696291583034,-0.99609375,-0.21807861,0.12664795,0.5,-6.59375,-0.1875
1696291583064,-1.0100098,-0.23883057,0.08514404,-10.28125,-7.640625,-2.265625
1696291583110,-0.97998047,-0.22833252,0.08514404,0.09375,-5.5625,-0.015625
1696291583153,-1.0083008,-0.23394775,0.10638428,-0.453125,-5.921875,-0.421875
1696291583185,-1.0031738,-0.22491455,0.07757568,-2.875,-5.46875,-0.75
1696291583229,-0.99609375,-0.21295166,0.061706543,-1.734375,-4.71875,-1.375
1696291583259,-1.0112305,-0.22369385,0.08050537,-0.734375,-4.140625,-0.15625
1696291583305,-1.0004883,-0.22369385,0.066833496,-0.515625,-3.859375,0.171875
1696291583349,-1.005127,-0.22149658,0.07122803,0.828125,-3.9375,0.265625
1696291583378,-1.0026855,-0.23638916,0.039733887,-1.546875,-3.609375,0.0
1696291583427,-1.0041504,-0.23175049,0.06341553,-0.171875,-4.140625,-0.015625
1696291583470,-1.0012207,-0.2234497,0.047302246,-0.5,-3.46875,-0.4375
1696291583500,-1.0048828,-0.22442627,0.050231934,0.078125,-3.203125,-0.0625
1696291583546,-1.0090332,-0.22418213,0.03753662,-0.40625,-2.703125,-0.03125
1696291583591,-1.0039062,-0.22125244,0.042907715,-0.796875,-1.6875,-0.21875
1696291583618,-1.0029297,-0.22271729,0.042907715,-0.59375,-1.859375,-0.296875
1696291583664,-1.0029297,-0.21466064,0.048034668,-1.28125,-1.140625,-0.453125
1696291583694,-1.0100098,-0.22979736,0.03753662,-1.9375,-2.15625,-0.078125
1696291583738,-0.99731445,-0.2288208,0.031677246,0.09375,-1.5625,-0.515625
1696291583783,-1.0161133,-0.21368408,0.054138184,-1.046875,-1.453125,-0.078125
1696291583831,-0.99316406,-0.22149658,0.042419434,-0.875,-2.6875,-0.578125
1696291583859,-1.0056152,-0.21514893,0.034606934,-1.640625,-1.84375,-0.3125
1696291583888,-1.0004883,-0.2144165,0.03387451,-1.65625,-2.140625,-0.359375
1696291583935,-1.0026855,-0.21905518,0.027038574,-1.53125,-1.75,-0.28125
1696291583963,-1.0007324,-0.22174072,0.035339355,-0.921875,-1.140625,-0.21875
1696291584011,-1.0012207,-0.2276001,0.016052246,-2.359375,-0.484375,-0.171875
1696291584054,-1.0043945,-0.21881104,0.047790527,-0.375,0.671875,-0.359375
1696291584084,-1.0041504,-0.2185669,0.027770996,-1.09375,0.890625,-0.828125
1696291584129,-1.0107422,-0.21221924,0.035095215,-1.6875,4.1875,-0.8125
1696291584174,-1.0048828,-0.2131958,0.04559326,-2.0625,6.640625,-0.578125
1696291584204,-1.0078125,-0.21343994,0.06317139,-1.1875,7.390625,-0.03125
1696291584250,-1.0087891,-0.21905518,0.078552246,-0.34375,7.5,0.0625
1696291584278,-1.0158691,-0.21636963,0.077819824,-2.375,7.59375,-0.1875
1696291584339,-1.0014648,-0.20098877,0.10296631,3.234375,8.546875,0.71875
1696291584370,-1.0083008,-0.20635986,0.09857178,-1.859375,7.890625,-0.015625
1696291584399,-1.0166016,-0.22442627,0.11395264,-2.015625,7.421875,0.640625
1696291584445,-1.0107422,-0.21710205,0.11834717,-2.546875,6.703125,0.453125
1696291584475,-0.97998047,-0.21929932,0.13787842,3.65625,6.953125,2.421875
1696291584521,-1.0065918,-0.21734619,0.1618042,3.828125,6.671875,2.5625
1696291584565,-1.0036621,-0.22003174,0.1828003,1.46875,4.625,1.1875
1696291584594,-0.99121094,-0.22686768,0.15814209,-1.59375,3.578125,0.78125
1696291584640,-0.97558594,-0.2210083,0.13446045,-3.09375,9.625,0.15625
1696291584685,-1.0002441,-0.2156372,0.18499756,11.359375,8.34375,4.578125
1696291584714,-0.99438477,-0.2432251,0.2218628,5.953125,10.578125,2.078125
1696291584759,-0.99902344,-0.24151611,0.21673584,2.40625,3.21875,0.765625
1696291584790,-0.98291016,-0.23175049,0.21185303,-1.375,2.28125,-0.09375
1696291584836,-0.9951172,-0.23834229,0.21551514,-0.375,3.015625,0.640625
1696291584879,-0.98168945,-0.23370361,0.215271,-1.4375,2.28125,0.4375
1696291584909,-0.97924805,-0.23101807,0.22406006,0.71875,3.515625,1.234375
1696291584956,-0.9863281,-0.24591064,0.23309326,-1.28125,3.171875,0.265625
1696291585030,-0.9802246,-0.23272705,0.2423706,0.34375,2.171875,0.453125
1696291585032,-0.9914551,-0.23980713,0.23382568,-2.453125,2.1875,-0.125
1696291585074,-0.98657227,-0.24078369,0.24481201,1.78125,2.859375,0.953125
1696291585105,-0.984375,-0.2444458,0.24627686,0.234375,2.78125,0.421875
1696291585150,-0.9790039,-0.24591064,0.2543335,-1.125,1.109375,-0.390625
1696291585180,-0.9812012,-0.23248291,0.25897217,1.3125,1.296875,0.15625
1696291585225,-0.9824219,-0.24761963,0.24066162,-2.421875,-0.765625,0.109375
1696291585269,-0.9824219,-0.25006104,0.26605225,-1.015625,0.609375,0.46875
1696291585298,-0.97143555,-0.24053955,0.26409912,-0.4375,-0.578125,0.1875
1696291585345,-0.9885254,-0.25274658,0.24725342,-5.25,-4.578125,0.21875
1696291585390,-0.9719238,-0.23468018,0.2477417,-0.1875,-6.40625,1.578125
1696291585419,-0.9765625,-0.2456665,0.24798584,-0.609375,-1.828125,0.34375
1696291585464,-0.9838867,-0.24029541,0.2477417,0.390625,-1.109375,0.625
1696291585495,-0.9838867,-0.23760986,0.24090576,-0.5,-2.203125,0.3125
1696291585541,-0.98046875,-0.24884033,0.2453003,-0.640625,-1.46875,0.171875
1696291585585,-0.9785156,-0.255188,0.24359131,0.078125,-0.671875,0.265625
1696291585615,-0.98291016,-0.25030518,0.24188232,-0.796875,-1.9375,-0.296875
1696291585661,-0.9746094,-0.24176025,0.24261475,0.96875,-0.8125,-0.109375
1696291585689,-0.97753906,-0.23614502,0.2387085,-1.34375,-1.6875,-0.359375
1696291585735,-0.9904785,-0.25030518,0.22723389,-1.234375,-2.703125,-0.09375
1696291585779,-0.9921875,-0.25274658,0.24578857,-0.484375,-1.640625,0.15625
1696291585809,-0.9724121,-0.25177002,0.23626709,-4.734375,-12.078125,-2.703125
1696291585855,-0.9902344,-0.22296143,0.23382568,0.984375,-15.03125,-0.453125
1696291585884,-0.9831543,-0.23223877,0.20159912,-0.84375,-14.25,-1.484375
1696291585930,-1.0019531,-0.2390747,0.17816162,-0.796875,-13.0,-1.125
1696291585974,-1.0,-0.23077393,0.18499756,-1.609375,-12.796875,-0.890625
1696291586005,-1.0,-0.23858643,0.16229248,-5.640625,-11.78125,-1.421875
1696291586048,-0.9938965,-0.22833252,0.15252686,-3.828125,-6.53125,-0.421875
1696291586126,-1.0087891,-0.23297119,0.137146,-7.265625,-5.296875,-1.0625
1696291586134,-0.998291,-0.2234497,0.120788574,-3.828125,-4.953125,-0.296875
1696291586169,-0.998291,-0.22296143,0.11248779,-5.28125,-6.09375,-0.234375
1696291586198,-0.9958496,-0.21539307,0.12908936,-0.34375,-4.953125,0.46875
1696291586244,-1.0092773,-0.2312622,0.1149292,-0.5,-4.25,0.03125
1696291586293,-1.0053711,-0.23150635,0.09490967,-0.671875,-5.4375,-0.640625
1696291586319,-1.0012207,-0.21685791,0.11199951,0.90625,-4.953125,-0.203125
1696291586380,-1.0163574,-0.237854,0.10345459,-4.25,-6.21875,-0.1875
1696291586395,-0.99731445,-0.2263794,0.077819824,-0.1875,-4.578125,-0.328125
1696291586438,-1.0141602,-0.2312622,0.10638428,-0.671875,-7.0625,0.0
1696291586487,-0.9897461,-0.22564697,0.07244873,-4.453125,-4.65625,-1.65625
1696291586513,-1.0107422,-0.2144165,0.07269287,-1.0,-4.90625,-0.6875
1696291586561,-1.0114746,-0.2263794,0.07635498,-1.1875,-4.796875,-0.59375
1696291586590,-1.0061035,-0.21685791,0.06903076,-1.375,-3.78125,0.140625
1696291586637,-1.0019531,-0.21221924,0.08123779,-0.796875,-3.9375,0.015625
1696291586680,-1.0075684,-0.23443604,0.04510498,-1.109375,-3.75,-0.234375
1696291586710,-1.0097656,-0.22320557,0.066589355,0.546875,-4.453125,0.21875
1696291586754,-0.9995117,-0.22735596,0.048034668,-0.671875,-4.84375,-0.359375
1696291586801,-1.0004883,-0.21636963,0.039733887,-0.5,-3.984375,-0.140625
1696291586829,-1.0095215,-0.21832275,0.045837402,-0.75,-3.359375,0.109375
1696291586875,-1.003418,-0.22442627,0.038269043,-0.421875,-3.359375,0.078125
1696291586905,-0.99853516,-0.22174072,0.039245605,-0.84375,-3.390625,-0.265625
1696291586951,-0.9963379,-0.21734619,0.029968262,-1.84375,-3.34375,-0.625
1696291586994,-1.0080566,-0.22979736,0.032165527,-0.75,-2.8125,-0.421875
1696291587041,-1.005127,-0.20709229,0.046569824,1.375,-2.03125,-0.421875
1696291587070,-1.0236816,-0.22735596,0.005065918,-3.9375,-1.859375,-0.640625
1696291587099,-1.0036621,-0.21343994,0.039733887,-0.359375,-2.375,-0.03125
1696291587144,-1.0073242,-0.22149658,0.017028809,-0.5,-1.859375,-0.40625
1696291587190,-1.0019531,-0.20904541,0.026550293,-0.65625,-2.65625,-0.109375
1696291587220,-1.0041504,-0.2131958,0.022644043,-0.671875,-2.5625,-0.125
1696291587263,-1.003418,-0.21881104,0.02142334,-0.65625,-1.671875,0.234375
1696291587309,-1.0029297,-0.2131958,0.01776123,0.015625,-0.5625,0.109375
1696291587341,-1.0043945,-0.21099854,0.042907715,-0.9375,0.71875,-0.125
1696291587385,-0.9946289,-0.22149658,0.019226074,-0.921875,-0.796875,0.03125
1696291587414,-1.0109863,-0.21514893,0.017028809,-1.578125,1.328125,-0.1875
1696291587459,-0.99438477,-0.2107544,0.019714355,-1.375,4.71875,-0.390625
1696291587505,-1.0024414,-0.20733643,0.020690918,-0.1875,9.421875,0.71875
1696291587534,-1.0063477,-0.21710205,0.06878662,2.234375,10.828125,1.265625
1696291587579,-1.0161133,-0.22296143,0.06536865,-0.6875,7.5,0.515625
1696291587610,-1.0053711,-0.21661377,0.06951904,-1.828125,7.546875,0.140625
1696291587656,-0.9992676,-0.21661377,0.08709717,0.390625,7.484375,1.21875
1696291587699,-1.0112305,-0.21368408,0.10418701,1.71875,7.15625,1.03125
1696291587729,-1.0087891,-0.2185669,0.093933105,-5.03125,6.984375,0.4375
1696291587776,-1.005127,-0.22467041,0.12835693,4.296875,4.71875,2.546875
1696291587804,-1.0019531,-0.22711182,0.1227417,-4.09375,5.359375,-0.6875
1696291587849,-0.9968262,-0.21807861,0.12420654,-3.34375,7.3125,0.46875
1696291587895,-0.9995117,-0.22833252,0.14251709,4.71875,2.8125,2.59375
1696291587924,-1.0085449,-0.22857666,0.15618896,1.421875,3.234375,1.59375
1696291587969,-0.9934082,-0.2276001,0.14422607,-1.09375,3.734375,0.578125
1696291588044,-0.9824219,-0.22271729,0.15570068,-2.40625,4.21875,0.25
1696291588059,-0.9980469,-0.23492432,0.16790771,1.765625,2.671875,1.375
1696291588089,-0.9992676,-0.23028564,0.1671753,-3.03125,2.578125,0.140625
1696291588118,-0.9938965,-0.22979736,0.17010498,1.890625,3.09375,0.953125
1696291588165,-1.0031738,-0.23516846,0.1942749,-0.296875,1.078125,0.234375
1696291588208,-0.9921875,-0.2312622,0.17279053,-1.5,2.28125,0.359375
1696291588240,-0.9941406,-0.23150635,0.18499756,-0.4375,3.40625,0.78125
1696291588285,-0.9963379,-0.22833252,0.19110107,0.578125,2.84375,1.0
1696291588313,-0.9797363,-0.22320557,0.199646,1.390625,3.28125,0.65625
1696291588361,-0.9909668,-0.22613525,0.19451904,-1.140625,2.0625,0.578125
1696291588408,-0.98583984,-0.2510376,0.19476318,0.375,2.109375,0.96875
1696291588434,-1.0014648,-0.24420166,0.19622803,-0.3125,4.015625,0.78125
1696291588480,-0.9746094,-0.23077393,0.2218628,5.15625,5.046875,0.875
1696291588511,-0.98583984,-0.23175049,0.23773193,3.140625,2.828125,1.015625
1696291588553,-0.9838867,-0.24249268,0.22210693,-0.6875,0.421875,0.578125
1696291588600,-0.97753906,-0.23956299,0.2255249,-0.625,-0.390625,0.28125
1696291588629,-0.97436523,-0.24249268,0.22747803,0.84375,0.140625,0.1875
1696291588673,-0.9812012,-0.24908447,0.21551514,-2.53125,-1.203125,0.140625
1696291588751,-0.98413086,-0.24542236,0.22991943,-0.34375,-0.46875,0.078125
1696291588756,-0.9836426,-0.237854,0.22137451,-1.0,-2.1875,-0.078125
1696291588795,-0.9902344,-0.24078369,0.21820068,0.21875,-0.203125,0.359375
1696291588824,-0.9797363,-0.24151611,0.2267456,-0.3125,-1.046875,0.4375
1696291588870,-0.9851074,-0.24932861,0.21673584,-0.703125,-0.734375,0.5
1696291588916,-0.98706055,-0.24639893,0.22747803,-0.109375,-0.796875,0.46875
1696291588945,-0.98950195,-0.2498169,0.22015381,-0.6875,-2.03125,0.21875
1696291588990,-0.9748535,-0.23809814,0.22796631,0.578125,-1.328125,0.0
1696291589019,-0.99243164,-0.24884033,0.22601318,-1.765625,-3.859375,-0.1875
1696291589065,-0.98876953,-0.24737549,0.22039795,3.015625,-2.828125,0.875
1696291589110,-0.99243164,-0.23980713,0.22088623,1.328125,-4.03125,0.453125
1696291589139,-0.9772949,-0.24786377,0.22161865,1.34375,-9.703125,-0.3125
1696291589185,-0.9875488,-0.25372314,0.19110107,1.65625,-12.875,-0.890625
1696291589214,-0.99072266,-0.24542236,0.16912842,-0.203125,-11.4375,-0.6875
1696291589259,-0.98583984,-0.24493408,0.16571045,-1.96875,-11.46875,-1.28125
1696291589305,-0.99487305,-0.24224854,0.15008545,-0.3125,-8.71875,-0.515625
1696291589334,-0.99780273,-0.25128174,0.13104248,-2.796875,-6.921875,-0.625
1696291589379,-0.9958496,-0.24176025,0.14105225,0.421875,-7.21875,-0.40625
1696291589424,-1.0048828,-0.24395752,0.13519287,-4.03125,-6.3125,-1.3125
1696291589454,-0.99975586,-0.23565674,0.11395264,-1.1875,-4.25,-0.390625
1696291589500,-1.0036621,-0.24346924,0.10321045,0.328125,-5.0,-0.03125
1696291589530,-0.998291,-0.24908447,0.113708496,0.203125,-4.140625,0.484375
1696291589574,-0.9909668,-0.2444458,0.097839355,-0.578125,-2.6875,0.03125
1696291589619,-0.986084,-0.24615479,0.10345459,0.796875,-4.234375,-0.1875
1696291589650,-1.0014648,-0.23980713,0.105163574,-2.0,-3.6875,-0.40625
1696291589695,-0.9892578,-0.24420166,0.07757568,-2.1875,-3.34375,-0.40625
1696291589726,-0.99560547,-0.2390747,0.09515381,-0.375,-1.640625,-0.75
1696291589769,-1.0102539,-0.23809814,0.08905029,-2.75,-2.1875,-0.046875
1696291589813,-1.0048828,-0.23492432,0.10687256,-0.9375,-3.28125,-0.328125
1696291589845,-0.99487305,-0.23248291,0.07293701,-3.046875,-2.734375,-1.46875
1696291589888,-0.9987793,-0.23468018,0.09100342,-0.15625,-3.625,-0.125
1696291589934,-1.0036621,-0.23150635,0.08758545,-0.828125,-3.515625,0.09375
1696291589965,-1.0014648,-0.23565674,0.082214355,-0.453125,-3.734375,0.046875
1696291590010,-0.9951172,-0.23809814,0.066589355,-0.453125,-4.03125,0.078125
1696291590038,-0.9995117,-0.2234497,0.078552246,-0.296875,-3.203125,-0.171875
1696291590091,-0.99731445,-0.23956299,0.06854248,-1.046875,-4.265625,-0.578125
1696291590130,-1.0095215,-0.22662354,0.059265137,-0.84375,-4.328125,-0.671875
1696291590161,-1.0073242,-0.23077393,0.05218506,-0.9375,-3.328125,-0.109375
1696291590204,-1.0085449,-0.23052979,0.046569824,-0.0625,-1.9375,0.171875
1696291590234,-0.99487305,-0.2312622,0.050231934,-1.734375,-0.984375,-0.265625
1696291590281,-1.0063477,-0.23321533,0.057800293,-1.28125,-0.5625,-0.296875
1696291590324,-1.0031738,-0.22467041,0.06439209,0.5625,-1.328125,0.109375
1696291590354,-1.0031738,-0.23101807,0.05633545,-1.515625,-1.625,-0.265625
1696291590399,-0.9995117,-0.23687744,0.04534912,-1.09375,-1.21875,-0.234375
1696291590429,-1.0053711,-0.22296143,0.07611084,-0.640625,-0.84375,0.1875
1696291590474,-0.9970703,-0.2300415,0.047302246,-0.390625,-2.34375,-0.328125
1696291590520,-1.010498,-0.22149658,0.04852295,-0.78125,-1.546875,-0.21875
1696291590549,-1.005127,-0.23077393,0.048034668,-0.53125,-1.546875,0.140625
1696291590594,-0.998291,-0.23052979,0.050964355,-1.21875,-0.46875,0.359375
1696291590640,-0.99780273,-0.22686768,0.058776855,-0.3125,1.234375,0.15625
1696291590669,-1.0026855,-0.24395752,0.046325684,-2.15625,2.484375,0.0
1696291590715,-1.001709,-0.23272705,0.06463623,-0.171875,4.046875,-0.0625
1696291590744,-0.9953613,-0.23370361,0.06414795,-1.03125,6.46875,-0.3125
1696291590793,-1.0085449,-0.22784424,0.08782959,-0.84375,7.640625,0.0
1696291590833,-1.0043945,-0.23638916,0.09222412,-0.828125,7.25,0.421875
1696291590863,-1.0002441,-0.22979736,0.10369873,-0.171875,6.328125,0.734375
1696291590911,-0.9968262,-0.2288208,0.11004639,-0.796875,6.828125,0.59375
1696291590939,-1.0036621,-0.2300415,0.121032715,0.671875,6.703125,0.828125
1696291590983,-0.9897461,-0.22198486,0.13787842,0.515625,6.859375,0.859375
1696291591031,-0.9987793,-0.23736572,0.14471436,-2.890625,5.6875,0.828125
1696291591062,-0.9975586,-0.2390747,0.14642334,5.1875,6.546875,1.921875
1696291591104,-1.0046387,-0.23760986,0.18060303,-2.21875,4.484375,0.46875
1696291591135,-0.9926758,-0.23150635,0.16693115,0.03125,4.984375,0.671875
1696291591178,-0.9970703,-0.23248291,0.18231201,1.15625,2.53125,1.0625
1696291591224,-0.9914551,-0.237854,0.17279053,-3.203125,1.0625,0.203125
1696291591256,-0.99121094,-0.2390747,0.18182373,-1.78125,2.71875,0.421875
1696291591299,-0.9951172,-0.24102783,0.18499756,-1.671875,2.328125,0.578125
1696291591373,-0.99121094,-0.23858643,0.18304443,-1.515625,1.578125,0.765625
1696291591376,-0.98779297,-0.23956299,0.19281006,-0.921875,2.4375,0.578125
1696291591420,-0.9819336,-0.23883057,0.18572998,0.78125,1.234375,0.6875
1696291591448,-0.98999023,-0.2366333,0.19598389,5.359375,1.015625,1.984375
1696291591511,-0.9951172,-0.237854,0.2140503,1.34375,2.40625,0.984375
1696291591539,-0.9838867,-0.2444458,0.20404053,-0.21875,4.234375,0.890625
1696291591570,-0.98706055,-0.25006104,0.21258545,-0.421875,1.625,0.6875
1696291591614,-0.9885254,-0.24786377,0.20794678,-0.25,3.234375,0.453125
1696291591644,-0.98706055,-0.25079346,0.22259521,-0.546875,2.046875,0.640625
1696291591688,-0.97680664,-0.25323486,0.2230835,1.546875,1.21875,0.421875
1696291591735,-0.9824219,-0.2420044,0.2164917,-0.28125,2.921875,0.234375
1696291591765,-0.98950195,-0.26348877,0.21087646,2.390625,0.015625,1.078125
1696291591809,-0.9790039,-0.25836182,0.22723389,-1.625,0.515625,0.0625
1696291591839,-0.97436523,-0.25567627,0.22943115,-0.90625,0.390625,-0.5
1696291591885,-0.9794922,-0.24420166,0.22796631,-0.75,0.3125,0.25
1696291591928,-0.9758301,-0.24761963,0.23553467,-0.703125,-1.140625,0.09375
1696291591959,-0.9777832,-0.2498169,0.22503662,-1.5,-1.015625,0.3125
1696291592005,-0.97436523,-0.24493408,0.23187256,-0.171875,-0.296875,0.203125
1696291592049,-0.98168945,-0.25079346,0.22821045,-1.40625,-0.984375,0.140625
1696291592079,-0.9777832,-0.25787354,0.23309326,-0.25,-0.09375,0.203125
1696291592126,-0.9790039,-0.25274658,0.23040771,-1.0,-1.390625,0.125
1696291592154,-0.9736328,-0.25421143,0.23162842,0.078125,-0.34375,0.28125
1696291592201,-0.9838867,-0.25445557,0.23284912,-0.71875,-1.6875,0.03125
1696291592243,-0.97802734,-0.24932861,0.23040771,-0.78125,-1.5625,0.296875
1696291592274,-0.9772949,-0.25030518,0.22332764,-1.078125,-1.859375,0.09375
1696291592319,-0.9831543,-0.2498169,0.23651123,-0.25,-1.53125,0.3125
1696291592350,-0.98095703,-0.24859619,0.2267456,-0.40625,-3.125,-0.078125
1696291592393,-0.98168945,-0.2654419,0.21673584,1.171875,-3.6875,0.40625
1696291592440,-0.97216797,-0.24591064,0.22259521,3.046875,-1.25,0.5625
1696291592472,-0.99438477,-0.2612915,0.21966553,-2.203125,-6.484375,-0.125
1696291592515,-0.9914551,-0.26617432,0.22894287,0.796875,-8.234375,-0.171875
1696291592559,-0.97924805,-0.25250244,0.1852417,1.140625,-9.140625,-0.859375
1696291592588,-0.9914551,-0.25616455,0.1942749,1.796875,-10.421875,-0.5625
1696291592635,-0.9929199,-0.25738525,0.17962646,-0.359375,-13.671875,-1.21875
1696291592665,-0.9812012,-0.24932861,0.1539917,-4.734375,-11.671875,-1.953125
1696291592710,-0.99316406,-0.24517822,0.14935303,-0.25,-7.921875,-0.75
1696291592769,-1.0043945,-0.24639893,0.1329956,-5.0625,-7.703125,-2.125
1696291592799,-0.9987793,-0.24395752,0.13128662,-1.8125,-5.921875,-1.640625
1696291592829,-0.99853516,-0.23883057,0.113464355,-1.828125,-6.359375,-1.046875
1696291592859,-1.0002441,-0.24346924,0.11932373,0.65625,-6.234375,-0.328125
1696291592905,-1.003418,-0.23492432,0.105163574,-2.375,-4.375,-0.390625
1696291592951,-1.0009766,-0.23638916,0.11273193,-0.421875,-3.9375,-0.0625
1696291592978,-1.0009766,-0.2354126,0.10028076,-2.46875,-3.203125,-0.515625
1696291593024,-1.0083008,-0.23760986,0.10272217,-0.21875,-4.671875,-0.4375
1696291593056,-0.9909668,-0.2288208,0.1083374,0.40625,-1.203125,-0.484375
1696291593102,-1.0024414,-0.22979736,0.093688965,-2.1875,-3.6875,-0.75
1696291593143,-1.001709,-0.24664307,0.07952881,-2.46875,-2.671875,-0.625
1696291593174,-1.0056152,-0.24029541,0.101745605,-0.359375,-4.0,-0.3125
1696291593221,-0.98828125,-0.23712158,0.0758667,-2.609375,-3.984375,-1.265625
1696291593266,-1.0021973,-0.23223877,0.07489014,-0.28125,-3.78125,-0.171875
1696291593295,-1.0007324,-0.23321533,0.07269287,-1.125,-3.109375,-0.28125
1696291593342,-0.998291,-0.23956299,0.074157715,-1.09375,-3.609375,-0.046875
1696291593371,-0.99853516,-0.2263794,0.07562256,0.53125,-3.28125,0.046875
1696291593416,-0.9951172,-0.24127197,0.055358887,-0.734375,-3.21875,-0.171875
1696291593459,-1.0078125,-0.22857666,0.066101074,0.453125,-4.40625,-0.265625
1696291593491,-0.9995117,-0.23565674,0.046569824,-2.6875,-5.171875,-1.34375
1696291593535,-1.0048828,-0.21490479,0.058776855,-1.84375,-4.015625,-0.515625
1696291593564,-1.0144043,-0.2234497,0.051696777,-0.8125,-3.59375,-0.203125
1696291593611,-1.0080566,-0.2276001,0.042907715,-1.375,-3.0,0.109375
1696291593655,-1.0007324,-0.22955322,0.04437256,-0.71875,-2.15625,0.109375
1696291593684,-1.0053711,-0.2276001,0.038269043,-1.53125,-2.15625,-0.03125
1696291593729,-0.99902344,-0.21881104,0.042419434,0.375,-1.53125,0.015625
1696291593759,-0.99780273,-0.21807861,0.050231934,0.5625,-0.65625,-0.125
1696291593804,-1.0068359,-0.23370361,0.019958496,-2.296875,-0.890625,-0.53125
1696291593852,-1.0119629,-0.22833252,0.06585693,0.203125,-0.875,0.375
1696291593879,-0.99853516,-0.23028564,0.030700684,-0.265625,-1.03125,-0.390625
1696291593926,-1.003418,-0.22076416,0.042419434,-1.4375,-0.671875,0.0
1696291593970,-0.99902344,-0.2263794,0.042907715,-1.3125,0.40625,-0.171875
1696291594001,-1.0009766,-0.23077393,0.039733887,-1.78125,0.734375,0.109375
1696291594045,-1.0009766,-0.23077393,0.058776855,0.140625,3.234375,-0.15625
1696291594073,-1.003418,-0.23077393,0.035095215,-3.328125,3.015625,-1.125
1696291594120,-1.0073242,-0.21661377,0.06512451,-1.625,5.0,0.03125
1696291594167,-1.0004883,-0.22515869,0.06414795,-2.265625,5.375,-0.453125
1696291594195,-1.013916,-0.2156372,0.08758545,-0.4375,6.453125,0.671875
1696291594240,-1.0056152,-0.22589111,0.08343506,-1.59375,4.609375,0.484375
1696291594269,-1.0053711,-0.22515869,0.090026855,-1.0,5.890625,0.78125
1696291594314,-1.0056152,-0.22564697,0.11126709,-1.40625,4.296875,0.71875
1696291594359,-1.0087891,-0.22174072,0.101989746,-2.4375,4.328125,0.078125
1696291594389,-1.0021973,-0.22491455,0.120788574,-0.265625,5.0625,0.546875
1696291594438,-1.005127,-0.23565674,0.11541748,-3.765625,2.875,0.078125
1696291594465,-0.99902344,-0.22589111,0.13909912,2.03125,4.265625,0.859375
1696291594509,-1.0063477,-0.22515869,0.13665771,-4.453125,2.703125,-0.390625
1696291594554,-0.99560547,-0.22076416,0.13763428,-1.28125,3.234375,0.28125
1696291594584,-0.99853516,-0.22955322,0.15545654,0.078125,3.109375,0.828125
1696291594632,-0.9941406,-0.22369385,0.15179443,0.5,2.046875,1.296875
1696291594674,-1.0041504,-0.2312622,0.16619873,-0.453125,2.65625,0.890625
1696291594704,-0.9875488,-0.22711182,0.16864014,1.046875,3.171875,1.21875
1696291594749,-0.99194336,-0.23931885,0.15740967,-3.078125,4.65625,1.15625
1696291594779,-0.99365234,-0.22442627,0.18450928,3.171875,1.796875,1.515625
1696291594824,-0.9938965,-0.24005127,0.18988037,-0.96875,2.671875,0.46875
1696291594869,-0.9968262,-0.23736572,0.18133545,-1.234375,1.375,0.578125
1696291594900,-0.9916992,-0.22857666,0.18914795,0.1875,2.265625,0.734375
1696291594944,-0.9958496,-0.23883057,0.19256592,0.5625,2.6875,1.15625
1696291594974,-0.98706055,-0.23834229,0.19769287,-0.453125,1.03125,0.5
1696291595023,-0.98779297,-0.25274658,0.19793701,-0.578125,0.890625,0.3125
1696291595065,-0.98095703,-0.23297119,0.19866943,-0.34375,1.21875,0.390625
1696291595095,-0.9968262,-0.23980713,0.19891357,-1.25,0.515625,0.125
1696291595140,-0.98168945,-0.24151611,0.18939209,2.34375,0.6875,0.984375
1696291595185,-0.98583984,-0.23760986,0.22332764,1.40625,2.765625,0.25
1696291595214,-1.0014648,-0.24932861,0.20379639,-3.0625,0.46875,0.15625
1696291595263,-0.9880371,-0.24078369,0.21820068,-0.75,0.8125,0.3125
1696291595290,-0.9868164,-0.237854,0.215271,-0.53125,0.421875,0.015625
1696291595366,-0.99487305,-0.24151611,0.21551514,-0.8125,-0.296875,0.265625
1696291595378,-0.98876953,-0.23931885,0.21600342,-0.765625,-0.484375,0.34375
1696291595411,-0.98706055,-0.24053955,0.21185303,-0.6875,-0.078125,0.65625
1696291595456,-0.9760742,-0.24053955,0.22479248,-0.0625,-0.34375,0.34375
1696291595484,-0.986084,-0.2366333,0.22161865,-0.953125,-0.15625,0.03125
1696291595533,-0.98217773,-0.24395752,0.22283936,-0.109375,-1.203125,-0.046875
1696291595574,-0.9838867,-0.24591064,0.2140503,-0.234375,-2.09375,0.0
1696291595605,-0.98535156,-0.24395752,0.21844482,1.078125,-1.34375,0.296875
1696291595649,-0.98706055,-0.24615479,0.22161865,1.828125,-3.734375,0.328125
1696291595680,-0.9909668,-0.24737549,0.21331787,0.78125,-7.625,-0.03125
1696291595725,-0.9958496,-0.24737549,0.20574951,2.5625,-13.4375,-0.46875
1696291595768,-0.984375,-0.23687744,0.1605835,-0.3125,-13.75,-1.265625
1696291595798,-0.9904785,-0.23956299,0.16009521,1.3125,-9.3125,-0.453125
1696291595846,-1.0012207,-0.25299072,0.14251709,0.46875,-9.015625,-0.578125
1696291595891,-0.98999023,-0.23883057,0.1395874,1.640625,-5.0,-1.171875
1696291595919,-0.9975586,-0.24127197,0.12786865,-2.609375,-5.625,-0.578125
1696291595965,-1.0021973,-0.24078369,0.13616943,0.734375,-5.828125,-0.359375
1696291595993,-0.99438477,-0.23980713,0.12982178,-1.671875,-4.078125,-1.25
1696291596040,-1.0031738,-0.23956299,0.113708496,-1.1875,-3.890625,-0.390625
1696291596086,-1.0063477,-0.22833252,0.124694824,-2.53125,-3.046875,-0.671875
1696291596115,-0.9916992,-0.23614502,0.10638428,-0.84375,-4.28125,0.0625
1696291596159,-0.9914551,-0.23345947,0.11468506,-0.09375,-3.6875,-0.390625
1696291596189,-0.9934082,-0.23883057,0.0993042,-0.59375,-5.0625,-0.671875
1696291596234,-1.0117188,-0.2354126,0.10662842,0.046875,-5.046875,-0.21875
1696291596280,-1.0053711,-0.23150635,0.07977295,-3.765625,-3.4375,-1.03125
1696291596327,-1.0056152,-0.22979736,0.0993042,0.4375,-4.21875,-0.0625
1696291596355,-0.9953613,-0.23077393,0.08148193,-0.625,-3.796875,-0.046875
1696291596384,-1.0053711,-0.23052979,0.077819824,-0.8125,-3.40625,-0.234375
1696291596433,-0.9975586,-0.22686768,0.06072998,-2.59375,-2.390625,0.03125
1696291596477,-1.0063477,-0.23834229,0.08831787,-3.03125,0.5,-0.09375
1696291596504,-1.0021973,-0.23345947,0.09075928,-1.90625,-1.515625,-0.234375
1696291596553,-0.9958496,-0.22149658,0.093688965,1.203125,-1.203125,-0.234375
1696291596593,-1.0129395,-0.22930908,0.06707764,-1.921875,-3.28125,0.171875
1696291596625,-1.001709,-0.23101807,0.0927124,0.515625,-4.34375,0.03125
1696291596671,-0.99487305,-0.23638916,0.058776855,-0.453125,-4.0625,-0.5
1696291596699,-1.0114746,-0.22857666,0.06854248,-0.640625,-3.796875,-0.453125
1696291596744,-1.0070801,-0.23052979,0.062438965,0.140625,-4.171875,0.03125
1696291596791,-0.9970703,-0.21881104,0.054626465,-0.75,-4.0,-0.25
1696291596819,-1.0029297,-0.23394775,0.05633545,0.5,-3.6875,-0.25
1696291596866,-0.998291,-0.22613525,0.049743652,-1.671875,-2.859375,-0.484375
1696291596895,-1.0061035,-0.23370361,0.047302246,-0.515625,-3.75,-0.140625
1696291596941,-1.0058594,-0.22174072,0.035339355,-0.8125,-3.671875,-0.515625
1696291596985,-1.0039062,-0.22613525,0.039001465,-0.78125,-2.640625,-0.078125
1696291597014,-1.0029297,-0.22735596,0.04046631,-0.296875,-2.796875,-0.03125
1696291597061,-1.0029297,-0.22613525,0.032165527,-0.65625,-2.609375,-0.25
1696291597088,-1.0080566,-0.22613525,0.030456543,-0.359375,-2.015625,0.046875
1696291597134,-1.0021973,-0.22418213,0.038757324,-0.9375,-1.453125,-0.234375
1696291597181,-1.0031738,-0.23223877,0.023132324,-1.203125,-2.265625,0.109375
1696291597224,-1.0041504,-0.22271729,0.034851074,2.078125,-1.703125,-0.046875
1696291597254,-1.015625,-0.22735596,0.02166748,-2.28125,-0.359375,-0.1875
1696291597300,-1.0004883,-0.23199463,0.03289795,0.03125,-2.421875,-0.125
1696291597329,-1.0039062,-0.22735596,0.027526855,-0.515625,-0.921875,-0.5625
1696291597374,-1.003418,-0.2210083,0.022399902,-1.078125,-1.421875,-0.171875
1696291597405,-1.0014648,-0.22296143,0.032409668,-0.390625,-1.875,-0.0625
1696291597448,-0.9980469,-0.22198486,0.027038574,-1.0,-1.34375,0.15625
1696291597496,-1.0002441,-0.22955322,0.0119018555,-0.015625,-1.234375,0.390625
1696291597524,-1.005127,-0.2185669,0.034851074,-0.609375,-0.265625,0.09375
1696291597572,-0.9926758,-0.2276001,0.030212402,-0.578125,0.28125,-0.40625
1696291597599,-1.0046387,-0.22906494,0.034851074,-0.90625,0.34375,-0.0625
1696291597644,-1.0039062,-0.22735596,0.024597168,-1.265625,1.046875,-0.34375
1696291597692,-0.99487305,-0.22198486,0.029968262,-1.359375,4.484375,-0.15625
1696291597719,-0.99780273,-0.22467041,0.047790527,-0.796875,6.40625,0.0625
1696291597764,-1.0029297,-0.22467041,0.046081543,0.28125,5.453125,0.5625
1696291597795,-1.0068359,-0.22906494,0.06121826,-1.109375,6.203125,-0.265625
1696291597839,-1.0100098,-0.2276001,0.070251465,-2.578125,4.46875,0.015625
1696291597885,-0.9975586,-0.22174072,0.07879639,0.78125,5.484375,0.234375
1696291597914,-1.0141602,-0.22857666,0.07659912,-5.625,6.09375,-0.15625
1696291597959,-0.9992676,-0.21343994,0.10345459,-1.953125,6.84375,0.828125
1696291598005,-0.9958496,-0.22564697,0.105895996,-1.078125,6.359375,0.1875
1696291598036,-1.0114746,-0.22320557,0.121032715,-0.1875,4.46875,0.78125
1696291598079,-1.0061035,-0.22833252,0.12615967,-1.78125,3.84375,-0.046875
1696291598110,-1.0048828,-0.22515869,0.12347412,-0.984375,3.546875,0.765625
1696291598154,-1.0048828,-0.23248291,0.1329956,1.0,3.5,1.03125
1696291598201,-0.998291,-0.22052002,0.14422607,-1.625,3.78125,0.296875
1696291598229,-0.99365234,-0.22442627,0.15228271,-0.1875,3.21875,0.390625
1696291598276,-1.0068359,-0.22467041,0.15570068,-0.625,2.25,0.484375
1696291598303,-0.98876953,-0.21710205,0.15863037,-0.78125,2.515625,0.296875
1696291598351,-1.0048828,-0.22369385,0.16619873,0.53125,2.109375,0.78125
1696291598393,-0.98999023,-0.23101807,0.15106201,0.140625,-0.4375,0.703125
1696291598426,-1.0053711,-0.23028564,0.17791748,1.234375,0.359375,0.59375
1696291598470,-0.9890137,-0.22979736,0.1642456,-2.390625,1.390625,-0.046875
1696291598516,-0.98657227,-0.2312622,0.1564331,2.984375,1.375,0.828125
1696291598544,-0.99853516,-0.22076416,0.1828003,1.484375,2.3125,0.796875
1696291598591,-1.0009766,-0.24249268,0.1630249,2.109375,1.484375,1.640625
1696291598618,-1.0131836,-0.24835205,0.14642334,0.171875,7.75,1.953125
1696291598664,-0.97436523,-0.2312622,0.1852417,13.328125,2.53125,2.28125
1696291598711,-1.0053711,-0.2432251,0.22039795,10.578125,0.328125,1.625
1696291598741,-0.9831543,-0.25128174,0.18060303,-3.265625,1.375,0.40625
1696291598800,-0.98828125,-0.24761963,0.1942749,-1.390625,2.109375,0.828125
1696291598814,-0.98168945,-0.23687744,0.1942749,0.703125,1.875,0.578125
1696291598861,-0.9824219,-0.2559204,0.1876831,-3.59375,0.5625,0.234375
1696291598904,-0.99194336,-0.25152588,0.20477295,0.328125,1.96875,0.703125
1696291598934,-0.98291016,-0.24615479,0.19744873,-1.53125,-0.5625,-0.015625
1696291598981,-0.9863281,-0.24639893,0.20404053,0.171875,1.078125,0.453125
1696291599009,-0.9875488,-0.25543213,0.19891357,-1.140625,-0.15625,0.34375
1696291599055,-0.984375,-0.25567627,0.20306396,-1.21875,0.390625,0.375
1696291599102,-0.9838867,-0.24786377,0.21063232,-0.5625,0.375,0.5
1696291599129,-0.98339844,-0.2571411,0.20501709,-1.078125,-0.109375,0.125
1696291599175,-0.97558594,-0.24468994,0.21331787,0.59375,-0.015625,-0.09375
1696291599221,-0.9909668,-0.24395752,0.20648193,-2.03125,-0.828125,-0.4375
1696291599250,-0.98876953,-0.25079346,0.20965576,-1.46875,-1.09375,0.375
1696291599295,-0.9851074,-0.25323486,0.22137451,0.453125,1.03125,0.4375
1696291599323,-0.9802246,-0.25030518,0.2074585,-0.390625,-1.1875,-0.1875
1696291599369,-0.9836426,-0.24542236,0.21087646,-0.453125,-0.84375,0.09375
1696291599417,-0.9794922,-0.24737549,0.2111206,-0.296875,-1.046875,0.34375
1696291599445,-0.99243164,-0.2522583,0.21063232,-0.59375,-1.390625,0.453125
1696291599492,-0.97509766,-0.25152588,0.2140503,0.765625,-0.78125,0.21875
1696291599520,-0.97802734,-0.25543213,0.20599365,-0.3125,-2.046875,0.1875
1696291599564,-0.98291016,-0.25152588,0.21795654,0.578125,-2.34375,0.28125
1696291599610,-0.9863281,-0.25201416,0.21453857,1.1875,-4.890625,-0.140625
1696291599639,-0.98950195,-0.25177002,0.20697021,1.96875,-5.6875,0.09375
1696291599686,-0.9938965,-0.25201416,0.19281006,1.25,-9.703125,-0.34375
1696291599714,-0.9921875,-0.24932861,0.17523193,-0.34375,-10.78125,-1.078125
1696291599761,-0.98217773,-0.24102783,0.1605835,-1.75,-8.515625,-1.34375
1696291599806,-0.9863281,-0.25323486,0.15350342,0.671875,-5.859375,-0.375
1696291599835,-1.001709,-0.24029541,0.15545654,-1.0,-5.96875,-1.421875
1696291599882,-0.9934082,-0.2588501,0.12908936,-2.375,-7.109375,-0.953125
1696291599925,-0.998291,-0.24273682,0.14129639,-2.328125,-1.515625,-2.453125
1696291599954,-1.001709,-0.24053955,0.12615967,-4.28125,-4.015625,-0.5625
1696291600002,-0.99365234,-0.23175049,0.15789795,-0.421875,-5.015625,-0.5
1696291600029,-0.998291,-0.24053955,0.1227417,-6.84375,-1.59375,-1.3125
1696291600075,-0.98583984,-0.22955322,0.11907959,-1.03125,-3.046875,0.015625
1696291600119,-1.0036621,-0.24176025,0.14276123,-0.34375,-4.078125,0.171875
1696291600150,-0.9938965,-0.24005127,0.12054443,-2.46875,-1.4375,-0.046875
1696291600194,-0.98779297,-0.23931885,0.120788574,-0.09375,-3.171875,-0.078125
1696291600224,-1.0061035,-0.23468018,0.1317749,0.3125,-3.203125,-0.421875
1696291600271,-0.9995117,-0.23468018,0.1305542,-0.359375,-2.328125,-0.46875
1696291600314,-1.0041504,-0.23590088,0.105163574,-1.125,-2.78125,-0.15625
1696291600344,-0.99609375,-0.23834229,0.11175537,-1.453125,-2.71875,-0.046875
1696291600389,-1.0043945,-0.23028564,0.117370605,-1.484375,-2.546875,-0.328125
1696291600420,-0.9946289,-0.23321533,0.10247803,-3.5625,-0.6875,-0.484375
1696291600466,-1.0012207,-0.23321533,0.10443115,-1.078125,-2.75,0.03125
1696291600510,-0.9951172,-0.22564697,0.1149292,0.859375,-2.171875,-0.203125
1696291600539,-0.9975586,-0.2263794,0.1149292,-0.796875,-2.84375,-0.53125
1696291600586,-1.001709,-0.24029541,0.086120605,-3.078125,-2.453125,-0.4375
1696291600631,-1.0083008,-0.2263794,0.12054443,-0.71875,-1.90625,-0.125
1696291600661,-0.9902344,-0.22515869,0.10028076,-0.828125,-1.96875,-0.390625
1696291600705,-1.003418,-0.2288208,0.10418701,-0.640625,-2.453125,-0.109375
1696291600735,-1.003418,-0.2288208,0.10003662,-0.421875,-1.75,-0.140625
1696291600781,-1.0058594,-0.23101807,0.086364746,-1.078125,-1.890625,0.09375
1696291600825,-1.0007324,-0.22930908,0.10321045,0.703125,-1.328125,0.3125
1696291600854,-1.0021973,-0.24298096,0.0914917,-1.125,-1.53125,-0.046875
1696291600900,-1.0070801,-0.23052979,0.1005249,-0.25,-2.28125,0.15625
1696291600929,-0.99853516,-0.23028564,0.09075928,-0.6875,-1.65625,-0.140625
1696291600974,-1.0073242,-0.22467041,0.08441162,-0.84375,-1.5,0.03125
1696291601019,-1.0,-0.23028564,0.09710693,-1.21875,-0.265625,0.015625
1696291601051,-1.0039062,-0.22711182,0.08758545,-1.21875,0.71875,0.171875
1696291601094,-0.99609375,-0.22979736,0.09124756,-2.0625,2.53125,-0.125
1696291601140,-1.0024414,-0.23272705,0.10369873,-3.15625,5.03125,-0.140625
1696291601170,-0.9941406,-0.22393799,0.113708496,0.375,6.765625,0.703125
1696291601214,-1.0073242,-0.2210083,0.13787842,1.28125,6.40625,0.4375
1696291601245,-1.0085449,-0.24468994,0.113220215,-4.6875,3.03125,0.03125
1696291601289,-1.0065918,-0.23223877,0.13641357,-1.90625,3.078125,0.890625
1696291601334,-0.9958496,-0.22320557,0.15325928,-1.40625,4.03125,0.328125
1696291601364,-0.9987793,-0.23175049,0.14398193,-2.21875,3.375,0.890625
1696291601411,-0.9909668,-0.22271729,0.16912842,1.921875,2.71875,1.203125
1696291601439,-1.0004883,-0.24029541,0.16546631,-1.25,1.578125,0.25
1696291601486,-0.98339844,-0.23175049,0.16082764,0.171875,2.234375,0.171875
1696291601529,-0.99243164,-0.23809814,0.15814209,-1.328125,0.0,0.484375
1696291601559,-0.99975586,-0.22955322,0.17181396,0.859375,1.125,0.828125
1696291601605,-0.9934082,-0.237854,0.1605835,-2.5,1.015625,0.078125
1696291601634,-0.99316406,-0.22784424,0.16693115,-1.453125,2.53125,0.421875
1696291601681,-0.9890137,-0.23223877,0.16204834,2.8125,0.203125,1.1875
1696291601726,-0.9892578,-0.22979736,0.17791748,1.96875,-0.21875,0.828125
1696291601753,-0.9941406,-0.22906494,0.18963623,0.671875,2.515625,1.046875
1696291601802,-0.9926758,-0.24029541,0.19671631,1.625,-0.78125,0.65625
1696291601844,-0.99243164,-0.23858643,0.20013428,0.78125,0.734375,0.25
1696291601874,-0.9875488,-0.22686768,0.18572998,-1.484375,0.515625,-0.375
1696291601920,-0.9953613,-0.24859619,0.17352295,-2.703125,-0.6875,0.203125
1696291601950,-0.98779297,-0.24542236,0.18670654,-2.421875,0.109375,0.203125
1696291601997,-0.97998047,-0.23956299,0.16619873,1.71875,-1.859375,0.640625
1696291602038,-1.0036621,-0.24468994,0.18865967,0.46875,-0.59375,0.484375
1696291602071,-0.98291016,-0.23614502,0.18182373,-1.28125,0.5,0.21875
1696291602116,-0.9934082,-0.24371338,0.18157959,-0.78125,0.1875,0.5625
1696291602147,-0.9880371,-0.23956299,0.19085693,0.5625,0.640625,0.5
1696291602191,-0.9916992,-0.24639893,0.18548584,-1.296875,0.046875,0.1875
1696291602235,-0.98999023,-0.23931885,0.18426514,0.421875,-0.3125,0.4375
1696291602265,-0.98339844,-0.24932861,0.18670654,-0.21875,-0.703125,-0.015625
1696291602309,-0.9904785,-0.2444458,0.1852417,0.171875,0.234375,0.3125
1696291602339,-0.9929199,-0.24664307,0.19281006,0.171875,-0.296875,0.546875
1696291602386,-0.98779297,-0.24615479,0.1828003,-0.640625,-0.53125,0.359375
1696291602430,-0.99194336,-0.23980713,0.1954956,0.015625,0.28125,0.328125
1696291602460,-0.99316406,-0.24957275,0.19525146,-0.875,-1.21875,0.078125
1696291602505,-0.97314453,-0.24078369,0.1984253,0.65625,-0.296875,0.09375
1696291602550,-0.99487305,-0.24273682,0.18109131,-2.953125,-2.4375,-0.34375
1696291602579,-0.9916992,-0.2432251,0.19720459,1.0625,-0.796875,0.625
1696291602626,-0.9814453,-0.24298096,0.19573975,-0.3125,0.75,0.140625
1696291602654,-0.9824219,-0.24127197,0.19158936,-0.453125,-0.75,-0.125
1696291602701,-0.9916992,-0.24273682,0.18890381,-0.984375,-1.640625,-0.296875
1696291602746,-0.99609375,-0.24005127,0.19598389,-0.75,-0.796875,0.125
1696291602773,-0.98999023,-0.24395752,0.1876831,-1.203125,-0.65625,0.359375
1696291602821,-0.98461914,-0.24420166,0.2020874,0.078125,0.09375,0.640625
1696291602849,-0.9892578,-0.25274658,0.18572998,-1.09375,-1.03125,0.4375
1696291602894,-0.98583984,-0.25250244,0.19598389,0.375,-0.296875,0.25
1696291602941,-0.98950195,-0.24737549,0.19500732,0.453125,-1.25,-0.0625
1696291602969,-0.9848633,-0.24517822,0.18792725,0.375,-0.5,0.234375
1696291603015,-0.9897461,-0.24713135,0.19500732,0.765625,-1.140625,0.171875
1696291603044,-0.9831543,-0.24786377,0.18670654,-0.015625,-1.4375,0.390625
1696291603090,-0.98999023,-0.24761963,0.20062256,0.625,-1.640625,0.15625
1696291603134,-0.98876953,-0.25006104,0.18670654,0.3125,-2.84375,0.25
1696291603164,-0.99072266,-0.24078369,0.19036865,0.296875,-2.578125,0.03125
1696291603210,-0.9975586,-0.2559204,0.17596436,-1.375,-4.421875,0.109375
1696291603257,-0.98413086,-0.23809814,0.1942749,3.25,-1.234375,0.25
1696291603285,-1.0007324,-0.25299072,0.1720581,-1.09375,-2.640625,0.03125
1696291603329,-0.9797363,-0.24249268,0.17962646,-0.375,-3.890625,-0.3125
1696291603361,-0.9951172,-0.24810791,0.17376709,-0.140625,-4.25,-0.546875
1696291603406,-0.9946289,-0.24884033,0.16986084,-0.4375,-4.28125,-0.015625
1696291603450,-0.99365234,-0.24176025,0.15838623,-0.75,-4.703125,-0.359375
1696291603480,-0.9892578,-0.24029541,0.16009521,-0.375,-3.71875,0.15625
1696291603526,-0.99731445,-0.24713135,0.15350342,0.640625,-4.21875,0.234375
1696291603555,-0.99731445,-0.24249268,0.15887451,-0.453125,-4.265625,-0.84375
1696291603600,-0.9914551,-0.24371338,0.15203857,0.15625,-4.515625,-0.765625
1696291603645,-0.9992676,-0.24420166,0.13348389,-1.171875,-4.46875,-0.1875
1696291603674,-0.99731445,-0.24298096,0.14129639,-0.015625,-2.859375,-0.453125
1696291603721,-1.0036621,-0.24615479,0.12982178,-2.203125,-2.296875,-0.6875
1696291603766,-0.99072266,-0.24932861,0.12225342,-2.515625,-2.71875,-0.375
1696291603796,-1.0029297,-0.23834229,0.13128662,0.671875,-3.171875,0.140625
1696291603856,-1.0073242,-0.24713135,0.1383667,-1.65625,-1.5,-0.59375
1696291603869,-1.0002441,-0.24713135,0.11175537,-3.5,-2.265625,-0.703125
1696291603916,-0.98291016,-0.23565674,0.12420654,1.59375,-0.921875,-0.75
1696291603960,-1.013916,-0.24298096,0.11419678,-3.25,-3.25,-0.109375
1696291603989,-1.0004883,-0.23394775,0.14324951,-1.484375,-3.3125,-0.546875
1696291604034,-0.9904785,-0.23175049,0.10858154,-4.15625,-0.859375,-0.921875
1696291604064,-1.0009766,-0.23223877,0.12738037,-0.125,-2.84375,-0.078125
1696291604111,-1.0039062,-0.2366333,0.1239624,0.703125,-2.515625,-0.140625
1696291604154,-0.99560547,-0.23956299,0.10247803,-2.515625,-0.75,-0.296875
1696291604185,-0.9958496,-0.23272705,0.11126709,1.15625,-2.28125,0.28125
1696291604232,-1.0009766,-0.23492432,0.1161499,-1.703125,-1.640625,-0.609375
1696291604259,-1.0004883,-0.24078369,0.11077881,-0.5,-1.90625,-0.390625
1696291604305,-1.0012207,-0.23394775,0.101257324,-1.234375,-2.71875,-0.078125
1696291604351,-0.9941406,-0.22906494,0.11126709,-1.0,-1.5625,-0.1875
1696291604379,-0.99731445,-0.23150635,0.109069824,0.140625,-2.46875,0.375
1696291604425,-1.0024414,-0.23492432,0.109802246,-1.265625,-1.609375,-0.25
1696291604471,-1.0009766,-0.22930908,0.093933105,-0.890625,-2.875,-0.171875
1696291604500,-0.9975586,-0.24176025,0.1071167,-1.390625,-2.78125,-0.4375
1696291604546,-0.9992676,-0.23516846,0.09539795,-0.0625,-2.953125,0.171875
1696291604574,-0.99658203,-0.22076416,0.10736084,2.09375,-1.40625,-0.109375
1696291604622,-1.0163574,-0.24346924,0.074401855,-4.453125,-2.25,0.046875
1696291604663,-0.9970703,-0.22369385,0.113464355,-0.421875,-2.78125,-0.21875
1696291604694,-1.0,-0.23394775,0.08929443,-0.5625,-2.484375,-0.125
1696291604739,-0.9995117,-0.22369385,0.08807373,-1.0625,-1.953125,-0.015625
1696291604770,-1.003418,-0.23443604,0.097351074,-0.296875,-2.046875,0.078125
1696291604814,-1.0012207,-0.23468018,0.08123779,-0.921875,-1.90625,0.125
1696291604859,-0.9916992,-0.22784424,0.09124756,0.984375,-0.90625,-0.03125
1696291604889,-1.0063477,-0.22589111,0.08929443,-0.859375,-1.296875,-0.203125
1696291604933,-1.0031738,-0.23101807,0.08538818,0.109375,-2.328125,-0.03125
1696291604963,-1.0056152,-0.23077393,0.082458496,-0.84375,-2.15625,-0.265625
1696291605008,-1.0021973,-0.22784424,0.0836792,-0.890625,-1.515625,-0.015625
1696291605054,-0.9946289,-0.23077393,0.08148193,-1.1875,-0.171875,0.078125
1696291605083,-0.99780273,-0.2354126,0.086120605,-0.984375,1.40625,0.015625
1696291605129,-0.99658203,-0.22857666,0.08782959,-1.078125,2.0625,-0.015625
1696291605173,-1.005127,-0.2354126,0.09075928,-1.8125,2.0625,-0.484375
1696291605203,-0.9963379,-0.23150635,0.101501465,-0.53125,2.15625,-0.25
1696291605252,-0.99194336,-0.21173096,0.1005249,-0.21875,5.421875,-0.296875
1696291605279,-1.013916,-0.24029541,0.09246826,-5.0625,5.78125,0.5
1696291605324,-1.0083008,-0.222229,0.13665771,-0.984375,4.171875,0.46875
1696291605370,-0.9968262,-0.23248291,0.12884521,-1.53125,3.5,0.015625
1696291605399,-0.9970703,-0.22857666,0.12591553,-0.296875,1.84375,0.765625
1696291605463,-0.9975586,-0.2234497,0.14031982,-0.3125,2.15625,0.421875
1696291605474,-0.9929199,-0.23687744,0.14007568,-1.578125,1.9375,0.40625
1696291605519,-1.0026855,-0.22662354,0.14471436,1.890625,2.71875,0.671875
1696291605566,-0.9975586,-0.22784424,0.1473999,-2.515625,1.640625,-0.09375
1696291605594,-1.0043945,-0.24078369,0.14520264,-1.078125,1.953125,0.484375
1696291605640,-0.9953613,-0.23492432,0.15985107,-0.0625,1.046875,0.328125
1696291605669,-1.0012207,-0.2366333,0.15960693,-1.296875,1.671875,0.125
1696291605715,-0.99316406,-0.22784424,0.15887451,0.265625,0.734375,0.765625
1696291605761,-0.98999023,-0.22711182,0.15740967,-0.34375,0.671875,0.859375
1696291605789,-0.9909668,-0.2341919,0.16522217,-0.78125,1.421875,0.390625
1696291605834,-0.9929199,-0.23297119,0.16156006,-1.9375,1.15625,0.171875
1696291605878,-0.9941406,-0.23614502,0.16204834,0.578125,0.78125,0.703125
1696291605909,-0.99975586,-0.24615479,0.17156982,0.28125,0.453125,1.140625
1696291605953,-0.9904785,-0.22467041,0.1786499,2.671875,3.0625,0.328125
1696291605984,-0.99658203,-0.23834229,0.18377686,-3.6875,-0.171875,-0.046875
1696291606030,-0.9873047,-0.23370361,0.17645264,-1.734375,0.609375,-0.046875
1696291606074,-0.9794922,-0.23321533,0.16741943,-0.46875,0.328125,0.109375
1696291606105,-0.9929199,-0.23175049,0.19232178,0.734375,1.46875,0.671875
1696291606149,-0.9970703,-0.23028564,0.18426514,-1.03125,1.328125,0.4375
1696291606180,-0.9926758,-0.2341919,0.18743896,-1.375,0.46875,0.390625
1696291606225,-0.9812012,-0.23297119,0.19036865,2.828125,0.125,1.0
1696291606271,-0.99902344,-0.23199463,0.20526123,-2.015625,0.390625,-0.203125
1696291606299,-0.9892578,-0.23370361,0.19232178,-0.265625,0.765625,0.390625
1696291606346,-0.98876953,-0.24249268,0.19769287,-1.171875,-0.359375,0.0625
1696291606390,-0.9880371,-0.23883057,0.19525146,-0.34375,0.390625,0.21875
1696291606420,-0.98779297,-0.23638916,0.19451904,-1.0,-0.140625,0.25
1696291606465,-0.9873047,-0.237854,0.19476318,-0.875,0.0,0.359375
1696291606496,-0.9929199,-0.23736572,0.19744873,-0.484375,0.578125,0.28125
1696291606541,-0.9851074,-0.2420044,0.20355225,-0.09375,-0.359375,0.171875
1696291606586,-0.98828125,-0.23199463,0.20574951,0.484375,0.046875,0.09375
1696291606614,-0.99487305,-0.23614502,0.19329834,-3.09375,-1.796875,-0.234375
1696291606660,-0.9909668,-0.24493408,0.20184326,2.0625,-0.90625,0.625
1696291606688,-0.9863281,-0.25054932,0.2062378,-0.9375,-0.234375,0.3125
1696291606737,-0.9797363,-0.23858643,0.20526123,-1.015625,-0.53125,-0.078125
1696291606780,-0.9863281,-0.23443604,0.20233154,-0.75,-0.484375,0.0
1696291606810,-0.97924805,-0.23590088,0.20233154,-0.6875,-0.09375,0.265625
1696291606854,-0.9946289,-0.24224854,0.20281982,-0.484375,-0.6875,0.421875
1696291606884,-0.9855957,-0.2354126,0.20819092,0.140625,-0.328125,0.28125
1696291606930,-0.9914551,-0.2456665,0.1984253,-0.6875,-0.9375,0.46875
1696291606974,-0.98706055,-0.23883057,0.20526123,0.390625,-1.234375,0.03125
1696291607005,-0.9777832,-0.23858643,0.21429443,3.96875,-2.796875,0.28125
1696291607052,-1.0021973,-0.24102783,0.18475342,-0.125,-6.3125,0.15625
1696291607094,-0.98413086,-0.23956299,0.19525146,1.234375,-4.359375,0.390625
1696291607125,-0.99658203,-0.24591064,0.17718506,-0.25,-5.171875,0.390625
1696291607170,-0.98217773,-0.2432251,0.17645264,-0.0625,-3.203125,0.15625
1696291607200,-0.9953613,-0.24810791,0.18450928,1.296875,-4.640625,0.5
1696291607246,-0.99560547,-0.25274658,0.16864014,-0.5,-5.34375,-0.46875
1696291607290,-0.98168945,-0.25372314,0.15789795,1.390625,-3.5625,-0.125
1696291607319,-0.99853516,-0.23468018,0.16253662,0.796875,-2.265625,-0.53125
1696291607366,-0.998291,-0.24884033,0.1473999,-1.84375,-3.40625,0.265625
1696291607394,-0.9968262,-0.24957275,0.16326904,0.125,-3.65625,0.203125
1696291607441,-0.98461914,-0.24713135,0.14666748,-0.328125,-3.421875,-0.703125
1696291607484,-1.0019531,-0.2420044,0.15032959,-0.125,-3.015625,0.15625
1696291607513,-0.99121094,-0.24029541,0.152771,-0.46875,-3.078125,-0.109375
1696291607562,-0.99121094,-0.24835205,0.13885498,-1.453125,-2.546875,-0.09375
1696291607589,-0.9921875,-0.25152588,0.14398193,0.90625,-2.8125,-0.25
1696291607635,-0.98217773,-0.24176025,0.124938965,-1.640625,-2.390625,-0.671875
1696291607681,-1.0031738,-0.24249268,0.13690186,0.5,-3.765625,0.046875
1696291607710,-0.9926758,-0.24468994,0.11419678,-2.375,-2.578125,-0.796875
1696291607756,-1.0002441,-0.2354126,0.13739014,1.34375,-2.671875,0.0625
1696291607831,-1.0039062,-0.24176025,0.12640381,-0.9375,-2.328125,-0.109375
1696291607835,-0.99365234,-0.2390747,0.12615967,0.046875,-2.5625,0.234375
1696291607874,-0.99780273,-0.23980713,0.12982178,-1.234375,-2.109375,-0.421875
1696291607904,-0.99853516,-0.24468994,0.12054443,-1.53125,-3.109375,-0.359375
1696291607950,-0.9946289,-0.23516846,0.121276855,0.65625,-2.28125,-0.390625
1696291607995,-0.99780273,-0.22271729,0.12200928,-0.234375,-2.125,-0.75
1696291608025,-1.0075684,-0.25006104,0.10394287,-3.640625,-2.515625,-0.34375
1696291608070,-1.0002441,-0.23297119,0.12176514,-0.0625,-2.71875,-0.015625
1696291608098,-0.99243164,-0.2390747,0.101989746,-2.03125,-1.328125,-0.71875
1696291608146,-1.005127,-0.22906494,0.112976074,-0.296875,-2.171875,-0.15625
1696291608190,-1.0004883,-0.23199463,0.109313965,0.234375,-2.375,0.015625
1696291608219,-1.0036621,-0.23736572,0.113708496,-1.578125,-2.15625,-0.15625
1696291608265,-0.9975586,-0.237854,0.11126709,0.984375,-1.921875,-0.171875
1696291608294,-0.9963379,-0.24298096,0.09320068,-1.546875,-2.46875,-0.453125
1696291608340,-1.0068359,-0.23492432,0.10858154,0.3125,-2.9375,-0.171875
1696291608385,-0.998291,-0.2420044,0.085876465,-1.65625,-3.125,-0.484375
1696291608415,-1.0007324,-0.2312622,0.09710693,-0.53125,-2.421875,-0.109375
1696291608462,-1.0041504,-0.22979736,0.101989746,-0.484375,-2.0625,0.1875
1696291608506,-1.0031738,-0.24346924,0.09100342,-0.75,-1.8125,-0.125
1696291608534,-0.99853516,-0.2354126,0.105407715,-0.671875,-1.28125,-0.0625
1696291608580,-1.0048828,-0.23492432,0.09222412,-1.109375,-1.140625,-0.296875
1696291608609,-0.99780273,-0.23199463,0.10028076,0.890625,-1.265625,0.0625
1696291608657,-1.0014648,-0.22686768,0.1005249,1.3125,-0.6875,-0.359375
1696291608702,-1.010498,-0.24127197,0.066345215,-3.25,-1.125,-0.28125
1696291608729,-1.0053711,-0.22833252,0.11907959,-0.265625,-0.75,0.03125
1696291608775,-0.99560547,-0.23760986,0.07904053,-0.953125,-1.0625,-0.234375
1696291608804,-1.005127,-0.2263794,0.09442139,-0.796875,-0.375,-0.125
1696291608850,-1.0004883,-0.23052979,0.09539795,-1.078125,-0.8125,0.03125
1696291608896,-1.0048828,-0.22442627,0.09466553,-1.90625,0.140625,-0.078125
1696291608924,-0.9941406,-0.2276001,0.10296631,0.015625,1.546875,0.0625
1696291608971,-1.0004883,-0.2366333,0.08856201,-2.0,1.359375,0.0625
1696291609016,-1.0012207,-0.2300415,0.10345459,-1.03125,2.171875,0.15625
1696291609045,-0.9929199,-0.23760986,0.10736084,-1.15625,2.78125,-0.15625
1696291609092,-0.998291,-0.22564697,0.12249756,-0.109375,2.609375,0.359375
1696291609119,-1.0007324,-0.23712158,0.10882568,-1.734375,2.09375,0.078125
1696291609165,-0.9904785,-0.22833252,0.12664795,-1.015625,3.609375,0.59375
1696291609209,-1.001709,-0.23883057,0.13153076,-2.203125,2.375,-0.140625
1696291609239,-1.0002441,-0.22857666,0.12225342,-2.90625,3.109375,-0.140625
1696291609286,-0.9987793,-0.21954346,0.1552124,1.0625,3.828125,0.28125
1696291609314,-1.0002441,-0.2210083,0.14984131,-2.984375,2.390625,-0.484375
1696291609360,-1.0004883,-0.23834229,0.1449585,-0.515625,2.53125,0.640625
1696291609405,-0.99731445,-0.23321533,0.15570068,-2.4375,2.125,0.234375
1696291609434,-0.99072266,-0.22296143,0.16131592,0.296875,2.546875,0.265625
1696291609498,-1.0014648,-0.2300415,0.16253662,-2.875,1.65625,-0.140625
1696291609509,-1.0039062,-0.2312622,0.16278076,-0.703125,1.734375,0.765625
1696291609554,-0.9921875,-0.23638916,0.16790771,-0.46875,0.953125,1.046875
1696291609616,-0.9975586,-0.22784424,0.18231201,-0.640625,2.390625,0.53125
1696291609629,-0.99121094,-0.24420166,0.16619873,-1.375,1.6875,0.40625
1696291609674,-0.9938965,-0.23956299,0.17425537,0.03125,1.484375,0.5
1696291609752,-0.99121094,-0.23175049,0.18060303,-0.65625,1.453125,0.125
1696291609754,-0.99560547,-0.23394775,0.17669678,-1.515625,1.03125,0.359375
1696291609794,-0.9914551,-0.23297119,0.18695068,-1.078125,1.234375,0.375
1696291609824,-0.9951172,-0.23297119,0.19573975,-0.40625,1.171875,0.6875
1696291609870,-0.98876953,-0.23321533,0.18988037,-1.890625,1.0,0.03125
1696291609915,-0.98461914,-0.23736572,0.17523193,1.234375,1.453125,1.15625
1696291609943,-0.98535156,-0.23736572,0.18548584,3.140625,2.625,1.328125
1696291610007,-0.99243164,-0.2498169,0.20599365,9.21875,-0.65625,2.46875
1696291610020,-0.98706055,-0.24029541,0.20452881,-0.53125,1.265625,-0.15625
1696291610065,-0.9992676,-0.253479,0.1930542,-3.484375,1.46875,0.296875
1696291610110,-0.9868164,-0.24102783,0.2086792,-1.53125,1.25,0.15625
1696291610138,-0.9777832,-0.23321533,0.21038818,-0.8125,1.4375,0.125
1696291610185,-0.9875488,-0.24176025,0.21087646,-0.8125,0.859375,0.484375
1696291610215,-0.9880371,-0.23492432,0.21453857,1.359375,0.671875,0.8125
1696291610261,-0.9819336,-0.24639893,0.20794678,-0.765625,-0.125,0.78125
1696291610306,-0.98339844,-0.24176025,0.22210693,1.734375,0.234375,0.984375
1696291610334,-0.99072266,-0.24542236,0.21234131,-1.171875,-0.046875,0.0625
1696291610380,-0.98168945,-0.24713135,0.2164917,-0.109375,-0.484375,0.15625
1696291610456,-0.98291016,-0.24737549,0.20843506,-0.78125,-1.546875,-0.0625
1696291610462,-0.9855957,-0.2444458,0.21282959,0.0,-0.546875,0.234375
1696291610499,-0.9890137,-0.24859619,0.22039795,0.0,-1.34375,0.390625
1696291610529,-0.984375,-0.24761963,0.21624756,-0.796875,-1.046875,0.125
1696291610574,-0.98339844,-0.25006104,0.21502686,-0.296875,-0.65625,0.265625
1696291610621,-0.9814453,-0.25177002,0.21014404,-0.609375,-1.65625,-0.109375
1696291610650,-0.97802734,-0.24493408,0.22015381,1.109375,-1.21875,0.09375
1696291610694,-0.9904785,-0.2444458,0.20770264,-1.140625,-3.109375,-0.484375
1696291610724,-0.99121094,-0.25030518,0.21234131,1.21875,-4.78125,0.578125
1696291610770,-0.9916992,-0.24957275,0.21014404,1.96875,-7.671875,0.25
1696291610816,-0.97875977,-0.24664307,0.17816162,0.3125,-9.421875,-0.578125
1696291610845,-0.9904785,-0.2432251,0.16815186,-0.46875,-6.453125,-0.453125
1696291610890,-0.9929199,-0.24810791,0.17596436,0.28125,-5.109375,0.09375
1696291610919,-0.99243164,-0.25177002,0.16278076,-1.125,-5.875,-0.375
1696291610966,-0.98413086,-0.24639893,0.15789795,-0.546875,-3.171875,0.265625
1696291611010,-0.9951172,-0.2539673,0.15814209,-0.140625,-3.609375,0.296875
1696291611039,-0.99975586,-0.2390747,0.15960693,1.0625,-4.65625,0.34375
1696291611086,-0.99121094,-0.25030518,0.14666748,-0.421875,-5.109375,-0.78125
1696291611130,-0.99609375,-0.24346924,0.13275146,-0.28125,-3.28125,-0.015625
1696291611159,-0.9909668,-0.24517822,0.14154053,0.390625,-3.671875,-0.140625
1696291611206,-0.9863281,-0.25665283,0.1317749,1.609375,-3.0,0.34375
1696291611234,-0.99316406,-0.24761963,0.13763428,-1.296875,-3.53125,-0.609375
1696291611279,-0.9921875,-0.25152588,0.12200928,-0.359375,-3.390625,-0.078125
1696291611341,-0.99658203,-0.24713135,0.12957764,-1.046875,-2.53125,-0.578125
1696291611353,-1.0075684,-0.25079346,0.113464355,-2.6875,-4.359375,-0.046875
1696291611403,-0.9980469,-0.24468994,0.11932373,0.5,-2.671875,-0.40625
1696291611429,-0.9814453,-0.23199463,0.10736084,-4.484375,-4.0,-1.09375
1696291611477,-0.98413086,-0.23736572,0.12786865,-1.4375,-2.8125,-0.75
1696291611519,-1.0,-0.23883057,0.11566162,-1.140625,-3.125,-0.1875
1696291611549,-1.0014648,-0.2312622,0.11273193,0.15625,-2.875,0.15625
1696291611595,-1.0014648,-0.24786377,0.101257324,-0.078125,-2.8125,0.359375
1696291611640,-1.0056152,-0.24102783,0.10614014,0.421875,-2.53125,0.25
1696291611669,-0.9941406,-0.2444458,0.090026855,-0.09375,-2.484375,0.3125
1696291611714,-1.0021973,-0.24078369,0.09979248,0.171875,-2.59375,0.203125
1696291611746,-0.99560547,-0.24420166,0.09979248,0.765625,-2.84375,-0.046875
1696291611789,-1.0100098,-0.24517822,0.08270264,-0.90625,-2.796875,-0.28125
1696291611833,-0.9934082,-0.23248291,0.09686279,-0.46875,-2.203125,0.125
1696291611865,-1.0039062,-0.2456665,0.089538574,0.125,-1.90625,0.484375
1696291611909,-0.9941406,-0.24835205,0.08416748,-1.28125,-1.8125,-0.15625
1696291611940,-0.99853516,-0.23931885,0.094177246,-0.25,-1.390625,0.109375
1696291611986,-1.0002441,-0.24273682,0.08734131,-0.015625,-1.1875,-0.234375
1696291612029,-1.0085449,-0.24859619,0.07635498,-1.734375,-2.265625,-0.015625
1696291612060,-0.99780273,-0.24005127,0.09442139,1.328125,-1.0,-0.421875
1696291612103,-1.0019531,-0.24639893,0.07269287,-4.109375,-1.125,-0.046875
1696291612136,-1.0,-0.23980713,0.090270996,-0.0625,-2.546875,-0.125
1696291612180,-0.99975586,-0.23980713,0.07904053,-1.53125,-0.90625,-0.546875
1696291612224,-1.0,-0.23297119,0.08465576,-1.171875,-0.265625,0.015625
1696291612254,-0.9958496,-0.23956299,0.078552246,-1.15625,0.203125,-0.15625
1696291612300,-1.0029297,-0.24468994,0.08905029,-1.484375,1.796875,0.171875
1696291612345,-0.9951172,-0.2354126,0.09295654,-0.296875,2.390625,0.28125
1696291612375,-0.9968262,-0.2390747,0.10247803,-0.546875,2.515625,-0.453125
1696291612420,-1.0068359,-0.24468994,0.10736084,-0.390625,2.265625,-0.03125
1696291612449,-1.0058594,-0.23883057,0.09832764,-1.59375,1.6875,-0.109375
1696291612494,-0.9909668,-0.2341919,0.113708496,-1.390625,2.890625,0.21875
1696291612541,-0.9934082,-0.24371338,0.12054443,-1.578125,2.75,0.359375
1696291612570,-0.9963379,-0.24468994,0.11956787,-1.796875,2.375,-0.03125
1696291612615,-1.0007324,-0.23834229,0.12591553,-1.515625,3.0,0.375
1696291612644,-0.9951172,-0.23516846,0.13739014,-1.671875,2.828125,-0.078125
1696291612690,-1.0019531,-0.24737549,0.13812256,-0.34375,2.078125,0.453125
1696291612736,-0.98217773,-0.22930908,0.14788818,2.1875,3.921875,0.328125
1696291612764,-1.0061035,-0.24371338,0.12908936,-4.578125,1.28125,-0.125
1696291612809,-1.0012207,-0.23565674,0.15325928,-1.359375,2.6875,0.546875
1696291612839,-0.98657227,-0.24151611,0.1539917,-1.25,2.671875,0.078125
1696291612885,-0.99658203,-0.23712158,0.16400146,-0.546875,1.921875,0.53125
1696291612931,-0.9897461,-0.24127197,0.16741943,-0.984375,2.484375,0.453125
1696291612960,-0.9926758,-0.24346924,0.16326904,-2.375,1.453125,0.109375
1696291613005,-0.98779297,-0.23565674,0.1774292,0.859375,2.515625,0.671875
1696291613080,-0.98828125,-0.23883057,0.17547607,-2.671875,1.59375,0.1875
1696291613085,-0.98828125,-0.24029541,0.18231201,0.59375,1.734375,0.8125
1696291613124,-0.99609375,-0.24298096,0.19378662,-0.734375,1.1875,0.375
1696291613154,-0.98657227,-0.24224854,0.18914795,-0.484375,1.859375,0.34375
1696291613199,-0.9875488,-0.24664307,0.1918335,-1.1875,0.984375,0.359375
1696291613244,-0.9897461,-0.2420044,0.18621826,-0.96875,0.8125,0.453125
1696291613275,-0.98828125,-0.24078369,0.19329834,-0.375,1.28125,0.53125
1696291613319,-0.9819336,-0.24468994,0.20111084,-0.734375,1.0,0.28125
1696291613348,-0.98413086,-0.23736572,0.20892334,0.640625,1.125,0.25
1696291613396,-0.9885254,-0.237854,0.19891357,-3.109375,-0.296875,-0.375
1696291613438,-0.9914551,-0.24371338,0.20037842,-0.46875,0.4375,0.46875
1696291613471,-0.9909668,-0.25128174,0.20770264,-1.09375,0.703125,0.359375
1696291613514,-0.9794922,-0.23297119,0.20501709,-0.9375,0.375,-0.109375
1696291613544,-0.9921875,-0.23980713,0.20501709,-1.390625,-0.703125,0.078125
1696291613591,-0.9885254,-0.24615479,0.21209717,-0.71875,-0.53125,0.265625
1696291613634,-0.9909668,-0.2390747,0.20281982,-0.71875,-0.421875,0.34375
1696291613665,-0.982666,-0.24127197,0.21258545,-0.09375,-0.171875,0.3125
1696291613711,-0.98535156,-0.24761963,0.20159912,-0.6875,-1.125,0.4375
1696291613754,-0.9880371,-0.24639893,0.21209717,0.0,-0.53125,0.046875
1696291613785,-0.98535156,-0.24542236,0.21136475,0.25,-1.125,0.03125
1696291613830,-0.99487305,-0.2456665,0.20892334,-0.125,-1.484375,0.21875
1696291613859,-0.9855957,-0.24395752,0.21136475,0.203125,-2.15625,0.09375
1696291613905,-0.98706055,-0.24517822,0.215271,1.859375,-3.984375,0.34375
1696291613950,-0.9929199,-0.25030518,0.19866943,0.75,-7.328125,-0.21875
1696291613979,-0.9812012,-0.24224854,0.18450928,0.1875,-6.546875,-0.234375
1696291614024,-0.9902344,-0.2390747,0.18060303,0.96875,-6.078125,0.046875
1696291614054,-0.99438477,-0.25860596,0.16326904,0.609375,-7.453125,0.328125
1696291614100,-0.9890137,-0.2444458,0.16888428,3.796875,-5.421875,-0.203125
1696291614145,-1.005127,-0.25128174,0.14886475,-2.921875,-6.578125,-0.640625
1696291614173,-0.9992676,-0.23931885,0.1642456,-0.25,-7.75,-0.375
1696291614220,-0.9953613,-0.2468872,0.12689209,-3.859375,-5.71875,-1.453125
1696291614265,-0.98828125,-0.23712158,0.13348389,0.109375,-4.671875,0.3125
1696291614296,-0.99853516,-0.253479,0.13079834,-0.890625,-3.171875,0.03125
1696291614341,-0.99365234,-0.24664307,0.12054443,-1.328125,-3.078125,0.078125
1696291614369,-0.9951172,-0.23980713,0.1251831,0.671875,-2.84375,-0.0625
1696291614415,-0.99780273,-0.24102783,0.12884521,-0.484375,-3.0625,-0.53125
1696291614461,-0.99560547,-0.24395752,0.12860107,-0.5,-3.25,-0.6875
1696291614490,-1.0024414,-0.2390747,0.10321045,-1.59375,-3.0625,-0.546875
1696291614537,-1.003418,-0.24151611,0.11785889,0.21875,-3.453125,-0.046875
1696291614564,-1.0014648,-0.23297119,0.116882324,-1.40625,-1.53125,-0.109375
1696291614609,-0.98950195,-0.2468872,0.10662842,-0.546875,-3.03125,-0.140625
1696291614656,-0.99658203,-0.23980713,0.12054443,-0.21875,-4.265625,-0.1875
1696291614684,-0.998291,-0.24591064,0.109802246,-2.640625,-3.59375,-0.65625
1696291614732,-1.0002441,-0.24591064,0.09588623,0.421875,-3.84375,-0.0625
1696291614760,-0.9958496,-0.23443604,0.11468506,2.0625,-2.1875,-0.25
1696291614806,-1.0092773,-0.25372314,0.08148193,-4.484375,-1.890625,-0.265625
1696291614850,-0.9975586,-0.24029541,0.109069824,0.078125,-3.578125,-0.21875
1696291614880,-0.99609375,-0.2390747,0.08343506,-0.609375,-1.140625,-0.390625
1696291614927,-1.0009766,-0.23248291,0.093933105,-0.1875,-2.78125,-0.015625
1696291614970,-0.9995117,-0.23321533,0.09075928,0.203125,-2.046875,0.0625
1696291614999,-1.0053711,-0.2420044,0.08856201,-0.515625,-2.328125,0.125
1696291615046,-0.99487305,-0.23492432,0.085876465,1.078125,-1.453125,0.03125
1696291615074,-1.0007324,-0.2420044,0.08465576,-1.015625,-1.5625,-0.328125
1696291615119,-1.0019531,-0.23590088,0.08441162,-0.171875,-1.640625,0.0625
1696291615164,-1.0004883,-0.24224854,0.07635498,-0.5,-1.75,-0.28125
1696291615194,-0.9992676,-0.23101807,0.086120605,-0.171875,-1.40625,0.015625
1696291615239,-1.0,-0.23883057,0.07171631,-0.515625,-1.703125,0.0625
1696291615269,-0.99902344,-0.24346924,0.07952881,-0.671875,-1.21875,0.125
1696291615330,-1.0002441,-0.23590088,0.0758667,-1.03125,-1.34375,-0.1875
1696291615359,-0.9975586,-0.23077393,0.07879639,-0.9375,-1.03125,-0.140625
1696291615391,-1.005127,-0.24249268,0.06365967,-1.59375,-1.84375,0.125
1696291615435,-0.9970703,-0.23516846,0.08294678,1.296875,-0.671875,-0.140625
1696291615464,-1.012207,-0.24639893,0.07147217,-3.28125,-0.234375,0.015625
1696291615510,-0.9904785,-0.23712158,0.08123779,-0.390625,-0.875,-0.140625
1696291615557,-1.0026855,-0.23858643,0.07928467,-1.375,0.578125,-0.328125
1696291615584,-1.0039062,-0.23028564,0.07928467,-1.359375,1.78125,-0.0625
1696291615630,-0.9963379,-0.23394775,0.08123779,-1.4375,2.828125,-0.078125
1696291615675,-1.0002441,-0.23516846,0.089782715,-2.140625,5.46875,0.234375
1696291615706,-0.99316406,-0.23028564,0.11517334,0.046875,6.3125,0.390625
1696291615751,-1.0009766,-0.23394775,0.11077881,-2.28125,5.078125,-0.375
1696291615779,-1.0092773,-0.23468018,0.12713623,-0.71875,4.296875,0.125
1696291615826,-0.99438477,-0.23565674,0.1239624,-2.578125,2.640625,-0.203125
1696291615871,-1.0036621,-0.23175049,0.13031006,-2.09375,4.265625,0.46875
1696291615900,-0.9921875,-0.22906494,0.137146,-2.03125,3.75,0.484375
1696291615945,-0.9970703,-0.24420166,0.14105225,-1.59375,3.546875,0.46875
1696291615975,-0.98950195,-0.23858643,0.15203857,-1.046875,2.890625,0.171875
1696291616021,-0.98950195,-0.23834229,0.15228271,-3.046875,2.703125,-0.3125
1696291616064,-0.99438477,-0.24078369,0.15228271,0.359375,2.484375,1.015625
1696291616095,-0.9938965,-0.21783447,0.18890381,4.53125,4.609375,0.90625
1696291616140,-1.0007324,-0.24542236,0.14251709,-4.65625,1.203125,0.625
1696291616170,-0.9904785,-0.23980713,0.16790771,-4.890625,9.796875,2.53125
1696291616216,-1.0061035,-0.2456665,0.21478271,3.34375,2.921875,2.0625
1696291616262,-1.0014648,-0.2354126,0.23260498,0.609375,2.34375,1.546875
1696291616291,-0.98095703,-0.24298096,0.19256592,-2.140625,2.296875,0.3125
1696291616340,-0.9902344,-0.24273682,0.20794678,-1.765625,1.875,-0.015625
1696291616379,-0.9814453,-0.24176025,0.20941162,-0.21875,2.109375,0.40625
1696291616409,-0.98217773,-0.24346924,0.20404053,-2.28125,2.46875,-0.1875
1696291616454,-0.98535156,-0.24078369,0.21844482,-0.359375,2.109375,0.5625
1696291616484,-0.9851074,-0.24176025,0.21087646,-1.828125,0.921875,0.125
1696291616530,-0.9785156,-0.24298096,0.22454834,-1.359375,1.953125,0.15625
1696291616575,-0.98339844,-0.2432251,0.22479248,-0.6875,0.9375,0.359375
1696291616604,-0.9807129,-0.24835205,0.22406006,-1.40625,0.828125,0.125
1696291616650,-0.9890137,-0.24395752,0.2321167,-0.453125,1.34375,0.59375
1696291616680,-0.9838867,-0.24810791,0.22747803,-1.046875,0.6875,0.203125
1696291616724,-0.9785156,-0.255188,0.23016357,2.640625,-0.703125,0.71875
1696291616770,-0.98217773,-0.23370361,0.2531128,-0.6875,1.09375,-0.03125
1696291616799,-0.9897461,-0.25811768,0.22406006,-2.078125,-1.078125,0.28125
1696291616863,-0.9812012,-0.25738525,0.24798584,-0.9375,0.296875,0.21875
1696291616890,-0.9733887,-0.24517822,0.23284912,-0.296875,-0.375,-0.375
1696291616919,-0.9848633,-0.24078369,0.23577881,-0.6875,-1.0,0.125
1696291616965,-0.97875977,-0.24542236,0.2411499,-0.421875,-0.453125,0.203125
1696291616995,-0.98217773,-0.24639893,0.23797607,-1.125,-0.578125,0.171875
1696291617041,-0.9765625,-0.25152588,0.24188232,0.25,-0.578125,0.171875
1696291617084,-0.97558594,-0.2539673,0.23358154,-0.84375,-1.0625,0.234375
1696291617114,-0.9782715,-0.24835205,0.2399292,0.40625,-1.15625,0.203125
1696291617160,-0.9758301,-0.2468872,0.24456787,-0.140625,-2.453125,-0.15625
1696291617190,-0.97924805,-0.24908447,0.23651123,0.453125,-2.171875,-0.046875
1696291617234,-0.98291016,-0.25030518,0.23529053,0.359375,-2.5625,0.234375
1696291617282,-0.9753418,-0.2456665,0.22454834,-0.265625,-2.859375,-0.03125
1696291617309,-0.9824219,-0.24810791,0.23651123,0.359375,-2.46875,0.328125
1696291617354,-0.97875977,-0.25738525,0.22479248,0.15625,-3.171875,0.15625
1696291617385,-0.9753418,-0.24273682,0.2345581,2.484375,-4.1875,-0.046875
1696291617432,-0.9995117,-0.24639893,0.21160889,-1.53125,-7.4375,-0.5625
1696291617474,-0.98339844,-0.25274658,0.20355225,1.421875,-7.328125,0.25
1696291617504,-0.984375,-0.2522583,0.20281982,1.328125,-6.671875,-0.234375
1696291617550,-0.9851074,-0.24468994,0.18060303,-0.515625,-7.796875,-0.65625
1696291617595,-0.98535156,-0.24957275,0.18157959,0.828125,-5.90625,-0.5625
1696291617625,-0.99487305,-0.2432251,0.17913818,0.765625,-6.296875,-0.375
1696291617671,-0.98999023,-0.24591064,0.16033936,-0.578125,-6.53125,-0.203125
1696291617700,-0.9863281,-0.24591064,0.1671753,1.5,-4.90625,-0.109375
1696291617746,-0.99609375,-0.24517822,0.15057373,0.203125,-5.359375,-0.09375
1696291617791,-0.99243164,-0.24273682,0.14886475,0.015625,-5.390625,-0.78125
1696291617820,-0.986084,-0.2444458,0.1473999,0.453125,-4.46875,-0.578125
1696291617866,-1.0065918,-0.24639893,0.14105225,-0.71875,-4.5625,-0.796875
1696291617896,-0.98413086,-0.2444458,0.11444092,-0.484375,-4.3125,-0.46875
1696291617940,-0.9968262,-0.24737549,0.13104248,0.25,-4.140625,0.03125
1696291617985,-0.99365234,-0.23760986,0.12200928,-0.671875,-1.515625,-0.25
1696291618014,-0.9951172,-0.253479,0.12054443,-0.0625,-2.96875,-0.015625
1696291618061,-0.9926758,-0.2300415,0.13519287,-0.546875,-1.75,-0.671875
1696291618089,-1.0024414,-0.24249268,0.1149292,-3.34375,-3.03125,-0.4375
1696291618136,-0.9916992,-0.24029541,0.105895996,0.546875,-2.328125,-0.140625
1696291618180,-0.9975586,-0.24517822,0.11541748,-1.859375,-2.15625,-0.078125
1696291618209,-0.98950195,-0.23760986,0.12225342,-0.359375,-2.03125,-0.359375
1696291618254,-0.99902344,-0.24151611,0.11077881,-0.375,-2.5625,-0.03125
1696291618300,-1.0,-0.23883057,0.1161499,-0.734375,-1.453125,-0.03125
1696291618330,-0.99658203,-0.24615479,0.11151123,-0.546875,-2.375,0.09375
1696291618375,-1.0007324,-0.23516846,0.1161499,-0.046875,-2.09375,0.125
1696291618404,-0.99194336,-0.24468994,0.1005249,-2.234375,-1.09375,-0.28125
1696291618451,-0.99780273,-0.23394775,0.11273193,0.0,-2.734375,-0.078125
1696291618496,-0.99194336,-0.24078369,0.09832764,-1.046875,-1.65625,-0.734375
1696291618524,-1.0021973,-0.23590088,0.09613037,-0.46875,-3.015625,-0.203125
1696291618570,-0.99560547,-0.24224854,0.09710693,-0.234375,-2.734375,0.0
1696291618599,-0.9968262,-0.23931885,0.08709717,-0.5,-2.390625,0.171875
1696291618648,-0.9995117,-0.24053955,0.09442139,-1.171875,-2.28125,-0.046875
1696291618690,-0.9921875,-0.23809814,0.09124756,-1.40625,-2.59375,-0.21875
1696291618720,-1.0021973,-0.23931885,0.10272217,0.65625,-2.0,-0.140625
1696291618766,-0.9926758,-0.22955322,0.098083496,0.890625,-1.046875,-0.28125
1696291618811,-1.0043945,-0.25372314,0.06317139,-2.75,-1.765625,-0.046875
1696291618839,-1.0031738,-0.23175049,0.10882568,-0.125,-0.515625,0.140625
1696291618887,-0.9953613,-0.24346924,0.08148193,-0.453125,-1.453125,-0.296875
1696291618914,-1.0056152,-0.2354126,0.086120605,-0.609375,-1.328125,-0.0625
1696291618962,-0.9975586,-0.2234497,0.090026855,-0.71875,-1.125,0.015625
1696291619005,-0.9992676,-0.23345947,0.09100342,-1.3125,-0.515625,0.234375
1696291619035,-0.9902344,-0.22955322,0.09295654,0.109375,0.078125,0.03125
1696291619081,-1.003418,-0.2498169,0.08001709,-1.703125,-0.015625,-0.09375
1696291619109,-1.0041504,-0.23199463,0.089782715,-0.78125,-0.171875,0.109375
1696291619154,-0.99658203,-0.23760986,0.08709717,-1.3125,0.734375,-0.34375
1696291619215,-0.9992676,-0.23516846,0.09320068,-1.28125,2.359375,0.28125
1696291619229,-0.9980469,-0.2420044,0.10345459,-1.328125,3.28125,0.40625
1696291619274,-1.0004883,-0.23248291,0.105895996,-1.40625,4.25,0.328125
1696291619304,-0.9975586,-0.23760986,0.12738037,-0.46875,3.09375,0.09375
1696291619349,-0.99365234,-0.23712158,0.10638428,-5.046875,2.0625,-0.953125
1696291619394,-1.0029297,-0.24249268,0.11810303,-3.484375,4.578125,-0.28125
1696291619425,-1.0029297,-0.21710205,0.1539917,-0.203125,6.078125,0.328125
1696291619469,-1.0080566,-0.24249268,0.12615967,-3.75,2.375,0.171875
1696291619499,-1.0009766,-0.23590088,0.14227295,-2.328125,3.296875,0.3125
1696291619544,-0.99121094,-0.23565674,0.15838623,0.3125,3.953125,0.671875
1696291619589,-1.0046387,-0.2276001,0.16082764,-0.421875,3.46875,0.609375
1696291619619,-0.9921875,-0.23223877,0.16766357,-0.421875,2.71875,0.671875
1696291619664,-0.99438477,-0.2420044,0.1630249,-2.109375,1.828125,0.203125
1696291619709,-0.98779297,-0.23443604,0.16522217,2.109375,3.03125,0.734375
1696291619740,-0.98779297,-0.24102783,0.17596436,-1.40625,0.515625,0.40625
1696291619785,-0.98950195,-0.24273682,0.17938232,-0.921875,2.046875,0.515625
1696291619814,-0.9938965,-0.23760986,0.1774292,-0.578125,1.515625,0.34375
1696291619859,-0.98999023,-0.23492432,0.18572998,-0.890625,2.453125,0.3125
1696291619907,-0.98950195,-0.24005127,0.18963623,1.203125,1.171875,0.8125
1696291619934,-0.9934082,-0.24176025,0.1930542,-1.796875,2.3125,0.421875
1696291619979,-0.98535156,-0.24420166,0.18988037,-0.234375,2.390625,0.609375
1696291620010,-0.9885254,-0.23760986,0.21234131,4.421875,0.640625,1.390625
1696291620058,-0.9868164,-0.25054932,0.2164917,-0.609375,1.109375,0.1875
1696291620099,-0.98657227,-0.24005127,0.20819092,-2.53125,2.328125,-0.5625
1696291620129,-0.99853516,-0.24713135,0.2008667,-2.8125,-0.0625,0.03125
1696291620175,-0.9897461,-0.2444458,0.21356201,-1.3125,2.0,0.328125
1696291620219,-0.98583984,-0.2366333,0.21795654,-1.171875,1.375,-0.1875
1696291620251,-0.9926758,-0.23980713,0.21722412,-1.515625,0.625,0.21875
1696291620293,-0.986084,-0.24615479,0.21600342,-0.703125,0.5,0.34375
1696291620324,-0.986084,-0.23809814,0.2189331,-1.09375,0.0625,0.328125
1696291620370,-0.97875977,-0.24224854,0.22137451,0.5625,-0.015625,0.53125
1696291620415,-0.98291016,-0.24517822,0.21966553,-0.21875,-1.171875,0.265625
1696291620444,-0.98583984,-0.24786377,0.2243042,0.796875,-2.203125,0.359375
1696291620491,-0.9914551,-0.2510376,0.21795654,1.84375,-4.5,0.265625
1696291620519,-0.986084,-0.24224854,0.21575928,1.765625,-5.53125,0.609375
1696291620565,-0.9863281,-0.24908447,0.20526123,2.09375,-8.03125,0.078125
1696291620609,-0.98413086,-0.24346924,0.18109131,0.109375,-7.25,-0.15625
1696291620640,-0.9890137,-0.24786377,0.19793701,1.578125,-6.34375,0.265625
1696291620701,-0.9916992,-0.25201416,0.17523193,1.53125,-8.84375,-0.4375
1696291620714,-0.9902344,-0.23736572,0.1696167,2.234375,-7.515625,-0.546875
1696291620760,-0.9975586,-0.23199463,0.15789795,-2.796875,-7.578125,-0.8125
1696291620806,-0.99780273,-0.24786377,0.14520264,2.078125,-6.171875,0.3125
1696291620834,-0.9987793,-0.25128174,0.13250732,-1.203125,-5.75,-0.5625
1696291620881,-0.98876953,-0.23956299,0.13909912,-0.4375,-4.453125,-0.84375
1696291620924,-0.9980469,-0.23565674,0.11956787,0.21875,-4.609375,-0.171875
1696291620970,-1.0021973,-0.24127197,0.1305542,-0.09375,-4.15625,0.015625
1696291621001,-0.9929199,-0.24346924,0.11395264,-0.59375,-3.15625,-0.015625
1696291621030,-0.9875488,-0.23175049,0.11517334,0.78125,-3.359375,-0.109375
1696291621075,-1.0004883,-0.25054932,0.11468506,-0.703125,-2.234375,-0.25
1696291621121,-0.99975586,-0.24395752,0.11981201,-0.1875,-3.21875,-0.078125
1696291621151,-0.9946289,-0.24591064,0.11004639,-0.265625,-1.8125,-0.640625
1696291621194,-0.9980469,-0.23931885,0.1005249,-1.21875,-3.0,-0.578125
1696291621224,-0.99975586,-0.24127197,0.109802246,-0.28125,-3.046875,-0.03125
1696291621271,-0.998291,-0.24395752,0.10076904,-0.171875,-2.59375,-0.109375
1696291621314,-1.0002441,-0.24078369,0.11444092,-1.21875,-1.875,-0.1875
1696291621344,-0.99609375,-0.24029541,0.09442139,-0.734375,-3.015625,-0.21875
1696291621389,-0.9941406,-0.23834229,0.10272217,0.921875,-2.34375,-0.34375
1696291621420,-0.99780273,-0.23687744,0.09832764,0.09375,-2.46875,-0.3125
1696291621466,-0.9992676,-0.24761963,0.07757568,-2.046875,-2.234375,-0.328125
1696291621509,-0.99902344,-0.24249268,0.10321045,-0.296875,-2.234375,-0.203125
1696291621540,-0.99560547,-0.24615479,0.08001709,-0.625,-2.96875,-0.40625
1696291621585,-1.003418,-0.23858643,0.08685303,-0.828125,-2.578125,-0.421875
1696291621630,-1.0039062,-0.24273682,0.08416748,0.015625,-2.46875,-0.03125
1696291621659,-1.0073242,-0.2432251,0.07562256,-1.234375,-2.234375,0.015625
1696291621705,-1.0053711,-0.23809814,0.08734131,1.671875,-1.59375,-0.03125
1696291621735,-0.99902344,-0.24639893,0.058288574,-1.328125,-2.0,-0.109375
1696291621780,-0.99902344,-0.24005127,0.07928467,0.125,-2.421875,0.203125
1696291621825,-0.99780273,-0.24420166,0.06585693,-0.59375,-2.28125,-0.265625
1696291621854,-0.99975586,-0.23638916,0.073913574,-0.625,-1.625,-0.15625
1696291621900,-0.9975586,-0.2390747,0.070251465,-0.515625,-1.75,0.375
1696291621929,-1.0009766,-0.24127197,0.06536865,-0.640625,-1.046875,0.125
1696291621976,-1.0075684,-0.2366333,0.073913574,-1.140625,-0.578125,-0.0625
1696291622021,-0.998291,-0.24127197,0.06536865,-1.6875,-0.53125,-0.34375
1696291622051,-0.9992676,-0.23883057,0.07122803,-0.625,0.0625,0.0
1696291622111,-0.9916992,-0.22711182,0.08319092,0.8125,1.40625,-0.109375
1696291622124,-1.0063477,-0.2444458,0.046813965,-3.40625,1.90625,-0.390625
1696291622186,-1.0012207,-0.23272705,0.10247803,-1.421875,4.03125,0.046875
1696291622214,-1.0004883,-0.23980713,0.081726074,-1.1875,3.921875,-0.234375
1696291622244,-1.0063477,-0.2354126,0.10247803,-1.15625,3.28125,-0.0625
1696291622291,-1.003418,-0.23956299,0.1005249,-1.65625,3.421875,0.078125
1696291622334,-0.99609375,-0.23321533,0.105895996,-2.265625,3.96875,0.359375
1696291622364,-0.9992676,-0.2390747,0.11810303,0.03125,5.046875,0.5625
1696291622411,-0.9953613,-0.24737549,0.11248779,-2.5625,3.46875,0.375
1696291622439,-0.9992676,-0.23077393,0.13397217,-0.78125,3.59375,0.453125
1696291622485,-0.99902344,-0.23980713,0.13153076,-1.765625,2.359375,-0.03125
1696291622532,-0.99658203,-0.22735596,0.14007568,-2.15625,3.171875,0.328125
1696291622559,-0.99194336,-0.23931885,0.14813232,-0.8125,3.828125,0.609375
1696291622621,-0.9946289,-0.23590088,0.15008545,-1.5,2.796875,0.375
1696291622634,-1.0007324,-0.2366333,0.15081787,-1.9375,3.28125,0.140625
1696291622680,-0.9902344,-0.24029541,0.15789795,-1.453125,2.84375,0.4375
1696291622725,-0.98828125,-0.23101807,0.17645264,0.171875,2.453125,0.140625
1696291622770,-1.0007324,-0.23687744,0.16790771,-4.234375,0.359375,-0.25
1696291622799,-0.9958496,-0.2432251,0.16741943,-0.453125,1.765625,0.53125
1696291622845,-0.99194336,-0.24542236,0.17547607,-2.8125,1.546875,0.0
1696291622873,-0.98168945,-0.23370361,0.1852417,-0.53125,1.4375,0.484375
1696291622919,-0.99121094,-0.23614502,0.18231201,-2.609375,1.5625,-0.046875
1696291622949,-0.9916992,-0.23394775,0.18939209,-0.703125,1.75,0.515625
1696291622994,-0.99194336,-0.23736572,0.18719482,-1.65625,1.234375,0.234375
1696291623039,-0.98461914,-0.23492432,0.19451904,-1.4375,2.0625,0.296875
1696291623070,-0.9958496,-0.23883057,0.19134521,-0.875,1.0625,0.6875
1696291623115,-0.9909668,-0.23712158,0.20697021,-0.4375,1.640625,0.359375
1696291623144,-0.9836426,-0.24005127,0.20697021,-0.578125,1.140625,0.046875
1696291623189,-0.9926758,-0.23394775,0.19793701,-1.421875,0.625,0.25
1696291623236,-0.98779297,-0.2390747,0.19940186,0.734375,0.3125,0.65625
1696291623265,-0.98168945,-0.22784424,0.23114014,2.15625,0.203125,1.046875
1696291623311,-0.9916992,-0.23736572,0.2033081,-2.875,1.125,-0.265625
1696291623340,-0.9819336,-0.24346924,0.21722412,0.53125,0.734375,0.875
1696291623385,-0.9980469,-0.24078369,0.22845459,0.953125,0.515625,0.390625
1696291623430,-0.986084,-0.25006104,0.21014404,-0.40625,-0.40625,0.25
1696291623459,-0.98095703,-0.23858643,0.2243042,1.609375,1.765625,0.15625
1696291623506,-0.9934082,-0.25030518,0.21160889,-3.09375,-0.84375,0.03125
1696291623551,-0.986084,-0.24029541,0.230896,-1.4375,-0.5625,-0.046875
1696291623580,-0.9885254,-0.2390747,0.22332764,-0.484375,-0.890625,-0.1875
1696291623626,-0.99243164,-0.24224854,0.22113037,-0.203125,-1.15625,0.359375
1696291623653,-0.9836426,-0.24224854,0.22015381,0.328125,-1.609375,0.53125
1696291623699,-0.9863281,-0.255188,0.22503662,0.65625,-2.953125,0.5625
1696291623748,-0.986084,-0.2390747,0.21673584,1.71875,-4.6875,0.515625
1696291623774,-0.98413086,-0.24908447,0.21136475,0.9375,-5.609375,-0.03125
1696291623821,-0.98461914,-0.25030518,0.19989014,1.171875,-7.078125,-0.03125
1696291623849,-0.9851074,-0.24761963,0.18719482,0.03125,-6.890625,-0.25
1696291623895,-0.98217773,-0.24761963,0.18353271,0.859375,-5.671875,-0.15625
1696291623940,-0.9975586,-0.2444458,0.17791748,0.359375,-6.578125,-0.328125
1696291623970,-0.99316406,-0.24273682,0.1642456,-0.796875,-5.96875,-0.140625
1696291624014,-1.001709,-0.24224854,0.16229248,-0.296875,-5.046875,-0.28125
1696291624045,-0.9914551,-0.24713135,0.16400146,0.78125,-5.203125,0.078125
1696291624090,-0.99365234,-0.24273682,0.15130615,2.78125,-4.671875,0.046875
1696291624134,-0.9975586,-0.23736572,0.14471436,-0.109375,-4.140625,-0.453125
1696291624165,-0.99365234,-0.24786377,0.12371826,-1.453125,-4.28125,-0.21875
1696291624210,-0.9970703,-0.24176025,0.15423584,0.671875,-3.5,0.109375
1696291624254,-0.9875488,-0.2390747,0.13397217,0.1875,-3.890625,-0.515625
1696291624284,-1.0119629,-0.24053955,0.12298584,-0.6875,-3.765625,-0.28125
1696291624330,-0.9963379,-0.23980713,0.13128662,1.140625,-2.015625,0.21875
1696291624360,-0.99731445,-0.24835205,0.11444092,0.546875,-3.046875,0.234375
1696291624435,-0.9963379,-0.23834229,0.12713623,2.015625,-1.796875,-0.09375
1696291624449,-0.99902344,-0.2498169,0.10809326,-1.078125,-1.84375,-0.375
1696291624479,-1.0004883,-0.24468994,0.124938965,1.578125,-2.515625,0.09375
1696291624524,-0.9934082,-0.2366333,0.105895996,-0.890625,-1.9375,-0.375
1696291624555,-1.0007324,-0.24298096,0.1149292,0.546875,-2.34375,0.078125
1696291624598,-0.99316406,-0.24273682,0.112976074,-0.703125,-1.703125,0.03125
1696291624646,-0.9934082,-0.24224854,0.11663818,0.3125,-1.484375,0.359375
1696291624675,-0.9970703,-0.24542236,0.11077881,-0.78125,-0.9375,-0.234375
1696291624721,-0.9934082,-0.2444458,0.10369873,-0.515625,-1.5625,0.03125
1696291624749,-0.9880371,-0.24371338,0.105651855,0.296875,-1.09375,0.0625
1696291624796,-0.99243164,-0.23687744,0.112976074,0.46875,0.46875,0.09375
1696291624840,-1.0095215,-0.25006104,0.08880615,-2.8125,-0.15625,0.15625
1696291624870,-0.9941406,-0.23516846,0.12371826,-0.703125,0.515625,-0.046875
1696291624914,-0.9951172,-0.24468994,0.105895996,-0.9375,-0.078125,-0.28125
1696291624958,-1.0036621,-0.23883057,0.109558105,-1.5,1.0625,0.0
1696291624990,-0.99975586,-0.24249268,0.11785889,-0.734375,0.984375,0.3125
1696291625035,-0.99853516,-0.2354126,0.11395264,-1.984375,0.796875,0.265625
1696291625065,-0.98706055,-0.24395752,0.12908936,0.125,1.71875,0.1875
1696291625110,-0.9953613,-0.2456665,0.12176514,-1.4375,1.234375,-0.09375
1696291625154,-0.99316406,-0.24395752,0.12982178,-0.84375,1.140625,0.390625
1696291625184,-0.9958496,-0.24591064,0.13665771,-1.140625,1.09375,-0.125
1696291625230,-1.0004883,-0.2354126,0.13250732,-0.984375,1.625,0.15625
1696291625259,-0.9946289,-0.24395752,0.13690186,-1.09375,1.71875,0.46875
1696291625304,-1.0,-0.24542236,0.13787842,-1.53125,1.953125,0.21875
1696291625349,-0.9992676,-0.23931885,0.1437378,-1.421875,2.328125,0.125
1696291625379,-0.99438477,-0.24835205,0.1449585,-2.0625,1.921875,0.046875
1696291625425,-0.9904785,-0.24053955,0.1515503,-0.421875,1.21875,0.375
1696291625469,-0.9946289,-0.24127197,0.15911865,1.5625,2.96875,0.28125
1696291625499,-1.0026855,-0.2432251,0.14764404,-3.484375,1.40625,0.015625
1696291625544,-0.99780273,-0.23834229,0.16375732,-2.46875,1.78125,0.0
1696291625575,-0.9838867,-0.24176025,0.16131592,-1.1875,3.0,0.046875
1696291625620,-0.9975586,-0.23956299,0.1696167,-0.125,2.140625,0.46875
1696291625666,-0.9963379,-0.24298096,0.17767334,-0.9375,2.5,0.390625
1696291625695,-0.9970703,-0.24224854,0.18035889,-1.828125,1.4375,0.328125
1696291625739,-0.984375,-0.24005127,0.18304443,0.3125,2.1875,0.390625
1696291625769,-0.9941406,-0.23760986,0.1876831,-2.3125,1.234375,0.34375
1696291625814,-0.98583984,-0.24078369,0.19134521,0.71875,1.609375,0.859375
1696291625859,-0.986084,-0.24664307,0.18963623,-2.5,1.40625,0.125
1696291625889,-0.9921875,-0.24761963,0.17767334,-1.453125,2.203125,0.453125
1696291625936,-0.98950195,-0.23272705,0.2164917,2.59375,0.84375,1.390625
1696291625964,-0.9970703,-0.25030518,0.20941162,-3.796875,0.578125,-0.28125
1696291626010,-0.98876953,-0.237854,0.21624756,-0.765625,1.90625,0.46875
1696291626055,-0.9868164,-0.24908447,0.2062378,-2.140625,-0.375,0.03125
1696291626084,-0.9802246,-0.24420166,0.21282959,0.1875,-0.34375,0.515625
1696291626131,-0.97998047,-0.23394775,0.22747803,0.28125,1.171875,-0.015625
1696291626176,-0.9970703,-0.24395752,0.21014404,-2.421875,-1.46875,0.25
1696291626204,-0.98706055,-0.24102783,0.22259521,-0.828125,-0.5625,-0.046875
1696291626251,-0.9814453,-0.23883057,0.21136475,-0.59375,-0.6875,-0.265625
1696291626280,-0.98657227,-0.24176025,0.21307373,-0.234375,-1.03125,0.265625
1696291626324,-0.984375,-0.24420166,0.22088623,0.328125,-1.671875,0.421875
1696291626370,-0.99243164,-0.24224854,0.21258545,0.375,-3.3125,0.4375
1696291626400,-0.97753906,-0.24249268,0.21478271,2.546875,-4.34375,0.6875
1696291626446,-0.98535156,-0.24395752,0.19598389,0.84375,-6.421875,0.40625
1696291626490,-0.99121094,-0.25543213,0.19622803,2.03125,-7.390625,0.234375
1696291626520,-0.9890137,-0.24835205,0.17010498,0.984375,-7.609375,-0.25
1696291626564,-0.98291016,-0.24468994,0.18865967,4.65625,-6.859375,0.34375
1696291626594,-0.99609375,-0.25054932,0.14642334,0.3125,-9.953125,-0.640625
1696291626639,-0.9836426,-0.25030518,0.15130615,1.390625,-6.25,0.09375
1696291626669,-0.99902344,-0.2420044,0.14666748,-1.5,-5.625,-0.96875
1696291626732,-0.9941406,-0.24859619,0.13275146,-1.703125,-5.328125,-0.125
1696291626760,-0.98413086,-0.24859619,0.14251709,2.203125,-3.625,-0.40625
1696291626789,-0.9970703,-0.23565674,0.1359253,-3.15625,-2.484375,-1.421875
1696291626837,-0.9921875,-0.24517822,0.10369873,-0.9375,-2.546875,-0.125
1696291626881,-0.9980469,-0.24810791,0.13763428,0.03125,-3.75,-0.125
1696291626909,-0.99438477,-0.24029541,0.12445068,-1.046875,-3.640625,-0.890625
1696291626956,-0.99658203,-0.24127197,0.11566162,-1.09375,-3.40625,-0.4375
1696291626985,-1.0026855,-0.24078369,0.11907959,-1.71875,-3.46875,-0.265625
1696291627030,-0.9941406,-0.23809814,0.10687256,-1.75,-4.109375,-0.28125
1696291627075,-0.9992676,-0.23028564,0.13128662,1.59375,-3.546875,-0.0625
1696291627104,-0.998291,-0.24127197,0.08782959,-2.828125,-2.0625,-0.890625
1696291627149,-1.0083008,-0.23516846,0.11151123,0.4375,-3.8125,-0.046875
1696291627180,-0.9921875,-0.24395752,0.093688965,0.078125,-3.90625,-0.375
1696291627224,-0.9975586,-0.23468018,0.0914917,0.03125,-3.484375,-0.046875
1696291627269,-1.0048828,-0.24127197,0.085632324,0.015625,-2.828125,0.140625
1696291627300,-1.0024414,-0.24346924,0.08831787,-0.046875,-3.03125,-0.09375
1696291627344,-1.0021973,-0.24273682,0.0848999,-0.4375,-2.890625,-0.140625
1696291627374,-1.0019531,-0.24395752,0.082214355,-1.15625,-2.71875,-0.140625
1696291627420,-1.0,-0.23956299,0.07635498,0.078125,-2.734375,0.046875
1696291627465,-0.98779297,-0.23638916,0.09661865,1.53125,-1.09375,-0.125
1696291627494,-1.012207,-0.24786377,0.047058105,-3.375,-1.84375,-0.21875
1696291627541,-0.9934082,-0.23297119,0.09442139,-0.140625,-1.515625,-0.171875
1696291627585,-0.9953613,-0.24078369,0.074401855,0.015625,-2.1875,-0.296875
1696291627614,-0.99365234,-0.2300415,0.066101074,-1.203125,-1.78125,-0.015625
1696291627659,-1.0080566,-0.23370361,0.07757568,-0.046875,-2.09375,0.140625
1696291627689,-1.0048828,-0.24176025,0.066589355,-1.9375,-2.171875,-0.015625
1696291627736,-0.9968262,-0.22857666,0.077819824,0.609375,-1.546875,0.046875
1696291627779,-0.99438477,-0.24810791,0.066589355,-1.296875,-1.90625,-0.234375
1696291627811,-1.0068359,-0.237854,0.06097412,-0.5,-1.9375,0.171875
1696291627855,-0.9987793,-0.23516846,0.05999756,-1.53125,-0.34375,-0.34375
1696291627884,-0.99731445,-0.22833252,0.070251465,-0.625,1.125,0.09375
1696291627931,-1.0009766,-0.23736572,0.062683105,-0.90625,0.609375,0.171875
1696291627974,-0.9970703,-0.23394775,0.066589355,-1.703125,2.75,-0.078125
1696291628004,-0.99780273,-0.22955322,0.08685303,-1.875,4.703125,-0.015625
1696291628050,-0.9992676,-0.23712158,0.086364746,-1.75,4.875,0.171875
1696291628095,-0.9980469,-0.23858643,0.093688965,-1.546875,4.765625,0.296875
1696291628124,-0.9975586,-0.22808838,0.11785889,2.359375,5.921875,0.53125
1696291628171,-1.0090332,-0.24102783,0.09686279,-4.1875,2.34375,-0.234375
1696291628199,-1.0087891,-0.22393799,0.1227417,-2.1875,4.703125,0.234375
1696291628245,-0.99365234,-0.2341919,0.13250732,-1.0,5.0,0.46875
1696291628291,-1.0026855,-0.23712158,0.13568115,-1.296875,4.25,0.40625
1696291628318,-0.99780273,-0.24176025,0.14007568,-1.921875,2.765625,0.21875
1696291628366,-0.9902344,-0.2312622,0.14593506,-2.53125,2.515625,0.125
1696291628441,-0.9897461,-0.2312622,0.15960693,1.140625,3.953125,0.46875
1696291628443,-0.9968262,-0.23614502,0.15985107,-2.328125,2.359375,0.078125
1696291628484,-1.0063477,-0.23516846,0.16229248,-1.546875,1.453125,0.375
1696291628513,-0.9909668,-0.23394775,0.16082764,-1.328125,2.171875,0.109375
1696291628562,-0.9958496,-0.23980713,0.17254639,-0.953125,1.703125,0.484375
1696291628589,-0.98461914,-0.23712158,0.17181396,0.46875,1.5625,0.96875
1696291628635,-0.9946289,-0.23760986,0.18328857,-1.6875,2.3125,0.40625
1696291628680,-0.98950195,-0.23980713,0.18548584,-1.25,2.328125,0.28125
1696291628710,-0.98413086,-0.24493408,0.18377686,0.140625,1.015625,0.671875
1696291628754,-0.98779297,-0.22784424,0.1954956,2.234375,1.21875,0.484375
1696291628799,-0.9970703,-0.23394775,0.19378662,-4.8125,-0.359375,-0.328125
