# Sensor type: Respeck
# Activity type: Standing
# Activity subtype: Hyperventilating
# Subject id: s2094833
# Notes: 
timestamp,accel_x,accel_y,accel_z,gyro_x,gyro_y,gyro_z
1696296304211,-0.39746094,-0.8826294,0.24163818,0.125,1.65625,0.53125
1696296304255,-0.41967773,-0.9026489,0.26190186,-0.71875,0.25,0.15625
1696296304285,-0.40722656,-0.90802,0.2453003,-0.96875,3.578125,-1.015625
1696296304330,-0.41430664,-0.87994385,0.262146,1.96875,0.0,0.421875
1696296304404,-0.40942383,-0.8936157,0.24627686,1.609375,-1.796875,1.140625
1696296304406,-0.38598633,-0.90289307,0.22381592,1.875,-2.828125,0.390625
1696296304449,-0.39990234,-0.9121704,0.18377686,-1.640625,-2.296875,0.03125
1696296304479,-0.3959961,-0.8892212,0.23040771,-6.640625,-2.765625,0.109375
1696296304528,-0.40307617,-0.91900635,0.23822021,-9.609375,0.5625,-3.90625
1696296304554,-0.40820312,-0.8345337,0.31219482,-4.0,-2.390625,1.671875
1696296304600,-0.41967773,-0.89849854,0.23431396,-5.09375,-2.71875,1.65625
1696296304644,-0.40356445,-0.9224243,0.2753296,-6.984375,8.640625,-1.5
1696296304674,-0.4243164,-0.8543091,0.2975464,-0.625,1.734375,-2.109375
1696296304720,-0.42041016,-0.88653564,0.3007202,0.6875,0.78125,1.21875
1696296304765,-0.4248047,-0.8833618,0.34906006,3.84375,0.21875,1.296875
1696296304795,-0.41918945,-0.8970337,0.28997803,7.34375,-2.28125,2.875
1696296304839,-0.39892578,-0.88238525,0.27508545,4.8125,-5.671875,2.25
1696296304884,-0.40014648,-0.9234009,0.27679443,3.09375,-3.140625,0.421875
1696296304914,-0.41381836,-0.91485596,0.25897217,4.234375,-4.40625,1.296875
1696296304959,-0.4038086,-0.90460205,0.25091553,0.015625,-6.265625,-0.78125
1696296304989,-0.4033203,-0.90802,0.2592163,2.234375,-3.609375,-0.3125
1696296305034,-0.41235352,-0.8948364,0.24066162,1.0,-3.90625,0.921875
1696296305064,-0.3918457,-0.8982544,0.21160889,2.296875,-2.703125,0.9375
1696296305110,-0.40454102,-0.911438,0.23504639,3.203125,-1.125,1.546875
1696296305154,-0.39501953,-0.90338135,0.1786499,0.765625,-2.796875,1.53125
1696296305201,-0.3881836,-0.8909302,0.18109131,-0.71875,-0.34375,0.671875
1696296305229,-0.36279297,-0.8987427,0.14715576,-9.15625,-5.359375,-2.90625
1696296305259,-0.4008789,-0.8982544,0.22210693,-7.5625,1.609375,-2.546875
1696296305304,-0.4255371,-0.8687134,0.27435303,-4.5,-4.46875,0.796875
1696296305349,-0.4020996,-0.93634033,0.21014404,-11.328125,2.796875,-6.28125
1696296305379,-0.4008789,-0.89068604,0.2699585,-4.53125,3.171875,-5.84375
1696296305425,-0.4501953,-0.87701416,0.27044678,-2.296875,-0.453125,-1.828125
1696296305499,-0.42797852,-0.9002075,0.26971436,-1.4375,2.0,-1.359375
1696296305504,-0.43896484,-0.87384033,0.2975464,0.046875,-0.375,0.734375
1696296305544,-0.43823242,-0.90582275,0.29534912,4.015625,-1.328125,2.328125
1696296305577,-0.41259766,-0.8862915,0.24871826,5.65625,-0.8125,1.515625
1696296305620,-0.41796875,-0.9126587,0.26409912,5.890625,-1.25,1.15625
1696296305666,-0.42016602,-0.9077759,0.24578857,6.953125,-3.640625,2.5625
1696296305711,-0.4169922,-0.89923096,0.22259521,3.53125,-1.75,-0.34375
1696296305739,-0.41918945,-0.9002075,0.21209717,1.125,-0.796875,0.5625
1696296305770,-0.41210938,-0.90753174,0.20892334,1.234375,-2.71875,0.109375
1696296305833,-0.42700195,-0.90631104,0.2164917,0.96875,-1.9375,1.453125
1696296305858,-0.40649414,-0.9072876,0.19329834,2.3125,-1.796875,1.5625
1696296305891,-0.38330078,-0.8792114,0.18597412,-2.34375,-0.875,0.953125
1696296305934,-0.39331055,-0.89556885,0.19940186,-3.1875,-4.28125,0.609375
1696296305964,-0.39941406,-0.9187622,0.18817139,-9.234375,-0.609375,-2.046875
1696296306012,-0.41503906,-0.83184814,0.3258667,-4.015625,-5.3125,1.921875
1696296306055,-0.4440918,-0.9326782,0.17596436,-4.421875,1.90625,1.125
1696296306086,-0.38208008,-0.92974854,0.24017334,-7.1875,0.25,-2.046875
1696296306147,-0.3972168,-0.8994751,0.23187256,-4.8125,0.921875,-1.859375
1696296306175,-0.41186523,-0.8875122,0.2616577,-5.03125,-2.453125,-0.125
1696296306204,-0.43676758,-0.89190674,0.28411865,-2.078125,-1.046875,0.828125
1696296306250,-0.42773438,-0.89385986,0.27752686,1.28125,-1.96875,1.1875
1696296306279,-0.41064453,-0.90338135,0.25506592,3.890625,-0.328125,1.203125
1696296306327,-0.4008789,-0.9121704,0.2333374,4.5,-0.21875,0.3125
1696296306370,-0.42407227,-0.90289307,0.2616577,7.734375,-0.953125,2.15625
1696296306399,-0.42504883,-0.9133911,0.21868896,4.71875,-0.125,0.296875
1696296306446,-0.40039062,-0.90631104,0.20526123,2.265625,2.03125,0.65625
1696296306474,-0.39135742,-0.90216064,0.18475342,-4.734375,-5.34375,-0.828125
1696296306523,-0.40551758,-0.897522,0.23406982,0.90625,-3.40625,-0.78125
1696296306565,-0.4140625,-0.89801025,0.20941162,1.96875,-2.71875,1.3125
1696296306593,-0.4260254,-0.8875122,0.2243042,-1.046875,-2.28125,2.40625
1696296306641,-0.39526367,-0.8845825,0.19012451,1.171875,-2.765625,0.90625
1696296306684,-0.39770508,-0.89971924,0.18035889,-3.0625,0.65625,-0.125
1696296306714,-0.41015625,-0.89068604,0.23944092,-4.234375,-4.25,0.5
1696296306774,-0.41259766,-0.8977661,0.26068115,-0.75,-6.09375,0.125
1696296306789,-0.42236328,-0.9534302,0.23016357,-7.328125,3.265625,-5.03125
1696296306836,-0.4038086,-0.8845825,0.21942139,-8.5,2.265625,-3.203125
1696296306879,-0.3955078,-0.9290161,0.18939209,-10.5,3.90625,-6.765625
1696296306909,-0.4501953,-0.8569946,0.2897339,-8.125,2.828125,-2.296875
1696296306954,-0.4404297,-0.8826294,0.307312,-4.046875,0.375,-1.125
1696296306983,-0.4411621,-0.8706665,0.29730225,2.0625,-0.15625,1.625
1696296307044,-0.44580078,-0.8833618,0.2831421,4.828125,0.515625,3.203125
1696296307074,-0.42114258,-0.90631104,0.262146,3.265625,-0.390625,2.8125
1696296307121,-0.4267578,-0.8948364,0.28338623,8.671875,0.859375,3.28125
1696296307150,-0.4182129,-0.9133911,0.23406982,4.828125,0.890625,1.765625
1696296307298,-0.42407227,-0.91363525,0.23480225,1.46875,-1.421875,1.890625
1696296307301,-0.4074707,-0.9092407,0.23382568,3.46875,-0.53125,1.390625
1696296307304,-0.39672852,-0.92803955,0.22210693,0.328125,4.6875,-0.015625
1696296307308,-0.38793945,-0.89801025,0.22137451,4.859375,-0.4375,1.25
1696296307346,-0.39746094,-0.89190674,0.20184326,2.6875,0.203125,2.234375
1696296307392,-0.38256836,-0.8916626,0.20941162,-2.1875,-1.375,0.53125
1696296307418,-0.3972168,-0.8833618,0.22161865,-6.515625,-1.921875,0.375
1696296307466,-0.39526367,-0.91192627,0.2177124,-8.65625,-3.4375,-1.875
1696296307496,-0.38793945,-0.88604736,0.23699951,-2.640625,-6.53125,0.734375
1696296307541,-0.42456055,-0.91534424,0.27825928,-7.46875,-2.359375,-4.671875
1696296307586,-0.39770508,-0.9024048,0.23968506,-9.828125,0.21875,-5.421875
1696296307614,-0.41430664,-0.8892212,0.19256592,-10.40625,4.328125,-5.40625
1696296307662,-0.48486328,-0.8804321,0.36151123,-6.75,2.71875,-1.875
1696296307689,-0.453125,-0.8648071,0.3295288,0.296875,-0.359375,1.109375
1696296307734,-0.40527344,-0.8970337,0.27435303,4.328125,1.75,1.84375
1696296307780,-0.41601562,-0.881897,0.2597046,7.140625,1.28125,2.125
1696296307810,-0.41674805,-0.9019165,0.291687,8.59375,0.765625,2.4375
1696296307856,-0.42285156,-0.89801025,0.25091553,6.75,-0.328125,3.5
1696296307884,-0.39086914,-0.897522,0.23309326,2.40625,-3.328125,1.0625
1696296307929,-0.41870117,-0.9089966,0.2531128,4.375,-1.96875,1.90625
1696296307976,-0.40478516,-0.9019165,0.23944092,1.484375,-2.984375,1.859375
1696296308005,-0.39404297,-0.89190674,0.23504639,4.6875,0.953125,4.03125
1696296308050,-0.37646484,-0.90509033,0.21990967,4.09375,-2.34375,3.90625
1696296308127,-0.3605957,-0.8960571,0.18621826,-2.109375,-4.65625,2.15625
1696296308129,-0.42358398,-0.9031372,0.22064209,-4.34375,-0.5,0.640625
1696296308170,-0.37182617,-0.9065552,0.1984253,-4.5625,1.203125,-1.6875
1696296308199,-0.41259766,-0.90216064,0.29632568,-5.84375,-2.796875,-1.0
1696296308244,-0.3959961,-0.89923096,0.25726318,-5.25,-2.84375,-3.4375
1696296308290,-0.38476562,-0.91607666,0.23529053,-8.296875,-1.6875,-6.21875
1696296308319,-0.4338379,-0.8945923,0.24505615,-6.21875,-1.625,-3.984375
1696296308364,-0.43188477,-0.8892212,0.29974365,-2.828125,-0.90625,-3.578125
1696296308395,-0.42895508,-0.8826294,0.28216553,-0.546875,0.0,-0.5
1696296308439,-0.43237305,-0.8999634,0.28289795,1.921875,-2.84375,1.46875
1696296308485,-0.42089844,-0.89630127,0.27508545,5.84375,-1.015625,3.203125
1696296308514,-0.42822266,-0.90460205,0.26605225,5.421875,-0.09375,2.75
1696296308559,-0.421875,-0.9229126,0.2074585,4.5625,-1.25,3.65625
1696296308589,-0.39135742,-0.90460205,0.21844482,2.921875,-1.765625,3.203125
1696296308634,-0.4050293,-0.91607666,0.21307373,1.484375,1.9375,2.09375
1696296308679,-0.39013672,-0.9224243,0.19622803,1.421875,-3.296875,0.671875
1696296308711,-0.4033203,-0.9038696,0.21722412,4.796875,0.234375,1.4375
1696296308754,-0.37939453,-0.9055786,0.18255615,-0.8125,-3.5625,0.109375
1696296308799,-0.39013672,-0.878479,0.20477295,-5.265625,-3.125,0.109375
1696296308828,-0.39501953,-0.8960571,0.22015381,-2.640625,2.578125,-0.90625
1696296308874,-0.38378906,-0.913147,0.16693115,-12.375,-1.046875,-2.796875
1696296308906,-0.38378906,-0.87091064,0.2831421,-2.921875,-4.421875,-0.59375
1696296308950,-0.43554688,-0.89849854,0.2711792,-1.96875,-4.859375,-1.5625
1696296308994,-0.40673828,-0.9507446,0.21942139,-6.90625,-0.328125,-4.265625
1696296309024,-0.40454102,-0.8982544,0.22454834,-3.9375,1.203125,-3.0625
1696296309087,-0.42773438,-0.8897095,0.26531982,-3.703125,1.34375,-2.453125
1696296309098,-0.43945312,-0.8735962,0.3114624,-1.859375,0.625,-1.453125
1696296309145,-0.43847656,-0.894104,0.31121826,2.8125,-1.203125,2.015625
1696296309194,-0.40283203,-0.9146118,0.25750732,2.96875,-0.4375,2.1875
1696296309219,-0.4111328,-0.8970337,0.26654053,4.203125,-1.390625,1.984375
1696296309265,-0.41674805,-0.8982544,0.2453003,4.203125,-3.859375,3.734375
1696296309309,-0.4025879,-0.89434814,0.2543335,6.78125,-0.875,3.59375
1696296309339,-0.42163086,-0.925354,0.21063232,4.234375,-1.203125,4.5625
1696296309386,-0.41088867,-0.8909302,0.25091553,8.15625,-1.765625,3.3125
1696296309416,-0.37646484,-0.9043579,0.17376709,5.765625,2.390625,3.546875
1696296309459,-0.3737793,-0.90167236,0.18792725,2.6875,-0.84375,2.796875
1696296309506,-0.3630371,-0.9043579,0.18182373,2.84375,-1.46875,1.1875
1696296309534,-0.3630371,-0.9060669,0.14813232,0.28125,-0.25,0.84375
1696296309582,-0.37963867,-0.91485596,0.17254639,-7.703125,-2.078125,-1.53125
1696296309611,-0.35351562,-0.9143677,0.17327881,-7.546875,2.71875,-2.625
1696296309654,-0.40283203,-0.88360596,0.24456787,-7.34375,-8.234375,-1.5
1696296309701,-0.37158203,-0.92510986,0.19647217,-7.34375,-3.671875,-6.90625
1696296309729,-0.39575195,-0.91485596,0.21551514,-8.8125,-2.6875,-5.015625
1696296309774,-0.41210938,-0.9151001,0.2645874,-8.296875,-3.359375,-4.65625
1696296309805,-0.42773438,-0.87872314,0.26849365,-5.1875,0.953125,-2.125
1696296309851,-0.421875,-0.88238525,0.3048706,-1.078125,-1.15625,-1.546875
1696296309895,-0.43701172,-0.88165283,0.28216553,-2.171875,-3.015625,0.84375
1696296309925,-0.43945312,-0.8994751,0.28826904,7.796875,-0.40625,3.21875
1696296309971,-0.41479492,-0.91119385,0.22821045,2.21875,-1.40625,3.796875
1696296310014,-0.40039062,-0.91607666,0.24749756,7.859375,-2.125,5.015625
1696296310045,-0.3881836,-0.913147,0.21282959,3.40625,-3.09375,4.03125
1696296310105,-0.40112305,-0.9060669,0.24334717,6.296875,1.53125,3.421875
1696296310118,-0.40307617,-0.92388916,0.20526123,7.34375,-2.46875,3.625
1696296310167,-0.39990234,-0.9619751,0.20111084,5.859375,2.328125,2.984375
1696296310210,-0.38256836,-0.91900635,0.19110107,3.734375,1.359375,0.296875
1696296310240,-0.38378906,-0.88653564,0.18695068,2.8125,-2.109375,1.515625
1696296310286,-0.36523438,-0.9356079,0.13934326,-2.140625,-2.65625,-0.046875
1696296310315,-0.36621094,-0.8989868,0.15789795,-6.765625,-3.84375,-0.1875
1696296310360,-0.38989258,-0.9143677,0.18060303,-8.625,-2.40625,-1.5
1696296310403,-0.37719727,-0.89312744,0.2321167,-4.859375,1.140625,-1.375
1696296310435,-0.40283203,-0.90948486,0.19671631,-8.375,-7.96875,-3.09375
1696296310483,-0.3720703,-0.9385376,0.2411499,-5.359375,-2.078125,-6.78125
1696296310510,-0.4177246,-0.89190674,0.19085693,-8.453125,2.609375,-5.265625
1696296310555,-0.42358398,-0.9067993,0.24163818,-6.0625,0.921875,-3.6875
1696296310599,-0.41479492,-0.8779907,0.26409912,-1.234375,-1.84375,-3.203125
1696296310630,-0.44555664,-0.87213135,0.2748413,2.390625,-1.9375,1.90625
1696296310674,-0.41333008,-0.9277954,0.24505615,5.09375,-0.65625,1.671875
1696296310720,-0.40234375,-0.90753174,0.21258545,3.4375,-0.359375,2.9375
1696296310765,-0.41357422,-0.90460205,0.24139404,2.953125,-3.625,2.765625
1696296310798,-0.41748047,-0.897522,0.22259521,6.59375,-3.15625,4.6875
1696296310825,-0.3942871,-0.92437744,0.20574951,0.421875,-1.3125,1.265625
1696296310869,-0.4387207,-0.911438,0.24432373,1.3125,-0.171875,2.125
1696296310921,-0.39916992,-0.9065552,0.1762085,-0.796875,3.546875,-0.15625
1696296310944,-0.3828125,-0.9151001,0.2333374,0.203125,4.234375,0.0625
1696296310991,-0.35375977,-0.88238525,0.13739014,-0.515625,-2.46875,1.609375
1696296311019,-0.3798828,-0.9067993,0.19915771,4.859375,-3.734375,1.625
1696296311065,-0.35009766,-0.9014282,0.11224365,-6.765625,-3.390625,-1.515625
1696296311109,-0.3930664,-0.90509033,0.23138428,-5.234375,-5.59375,-1.1875
1696296311138,-0.41992188,-0.8897095,0.24920654,-2.1875,-7.9375,0.5
1696296311187,-0.42211914,-0.91851807,0.18377686,-5.34375,-3.9375,-1.90625
1696296311214,-0.4025879,-0.9421997,0.24676514,-4.15625,1.78125,-3.46875
1696296311260,-0.41259766,-0.8936157,0.22650146,-3.25,-1.46875,-2.328125
1696296311304,-0.39575195,-0.9216919,0.20819092,-4.484375,0.125,-2.125
1696296311335,-0.44018555,-0.89923096,0.25946045,-1.09375,1.15625,-1.640625
1696296311379,-0.43188477,-0.8965454,0.2736206,1.875,-2.640625,0.421875
1696296311428,-0.41015625,-0.90875244,0.22918701,5.359375,0.296875,2.859375
1696296311454,-0.40405273,-0.9299927,0.20306396,4.0625,-0.8125,2.890625
1696296311500,-0.39746094,-0.90997314,0.22821045,6.8125,-0.453125,4.765625
1696296311544,-0.39086914,-0.9360962,0.16986084,-1.046875,0.296875,1.265625
1696296311574,-0.3942871,-0.9248657,0.20428467,2.234375,-0.28125,0.34375
1696296311619,-0.4025879,-0.9053345,0.19158936,-1.265625,1.671875,-1.3125
1696296311650,-0.4284668,-0.8882446,0.246521,-0.453125,-1.078125,-0.015625
1696296311696,-0.39501953,-0.9038696,0.18572998,2.78125,1.765625,-0.171875
1696296311724,-0.36914062,-0.89385986,0.15960693,1.59375,-0.75,1.71875
1696296311770,-0.37304688,-0.892395,0.1749878,-1.171875,-2.203125,1.265625
1696296311814,-0.3798828,-0.92071533,0.1564331,-4.375,-3.171875,0.09375
1696296311844,-0.38745117,-0.9026489,0.18914795,-3.25,-0.75,0.3125
1696296311895,-0.38549805,-0.9155884,0.21380615,-1.375,-4.90625,0.828125
1696296311935,-0.40795898,-0.9365845,0.17669678,-4.71875,-1.359375,-3.015625
1696296311964,-0.40356445,-0.9273071,0.21990967,-4.578125,1.796875,-3.984375
1696296312009,-0.38134766,-0.91070557,0.17718506,-2.515625,-1.140625,-3.484375
1696296312057,-0.4099121,-0.9092407,0.22894287,-3.859375,1.0,-4.09375
1696296312084,-0.45288086,-0.88897705,0.2616577,-0.546875,0.15625,-1.5
1696296312131,-0.44189453,-0.9048462,0.26849365,5.75,-2.65625,1.625
1696296312175,-0.41625977,-0.92071533,0.18792725,0.484375,1.25,1.3125
1696296312204,-0.40478516,-0.91485596,0.25238037,3.890625,0.109375,2.40625
1696296312237,-0.41455078,-0.9168091,0.18743896,5.0625,-0.015625,4.078125
1696296312279,-0.37963867,-0.91192627,0.18499756,3.40625,-1.125,3.53125
1696296312327,-0.39453125,-0.91656494,0.18450928,2.015625,-1.328125,2.28125
1696296312355,-0.4091797,-0.9151001,0.21600342,5.640625,0.796875,2.796875
1696296312399,-0.39892578,-0.90216064,0.16986084,3.25,0.296875,1.890625
1696296312428,-0.39038086,-0.91778564,0.17376709,1.171875,1.34375,0.546875
1696296312477,-0.3779297,-0.9151001,0.15496826,-1.4375,-1.453125,-0.15625
1696296312520,-0.3713379,-0.9229126,0.15594482,-1.84375,0.734375,-0.78125
1696296312566,-0.35327148,-0.8994751,0.11126709,-7.515625,-0.171875,-2.046875
1696296312594,-0.38720703,-0.91363525,0.19012451,-7.046875,0.359375,-4.125
1696296312641,-0.38134766,-0.89019775,0.18817139,-7.546875,-2.109375,-1.953125
1696296312669,-0.43164062,-0.92755127,0.21282959,-1.375,-4.90625,-0.828125
1696296312716,-0.3935547,-0.93829346,0.1864624,-7.59375,2.453125,-5.765625
1696296312746,-0.40185547,-0.8640747,0.20819092,-0.46875,-0.1875,-2.9375
1696296312792,-0.42773438,-0.925354,0.23284912,-2.328125,0.640625,-3.203125
1696296312834,-0.45288086,-0.88360596,0.24285889,-1.296875,0.046875,-1.25
1696296312880,-0.43164062,-0.8989868,0.23846436,8.484375,5.40625,1.3125
1696296312912,-0.4091797,-0.90045166,0.22796631,2.78125,-2.9375,1.75
1696296312939,-0.41210938,-0.91241455,0.1954956,4.203125,-0.953125,3.171875
1696296312984,-0.41674805,-0.9302368,0.20599365,5.109375,-0.5625,3.46875
1696296313029,-0.39892578,-0.91119385,0.19525146,8.125,0.1875,5.0
1696296313077,-0.3894043,-0.92388916,0.17694092,2.578125,-1.9375,2.640625
1696296313104,-0.40307617,-0.92974854,0.17181396,2.90625,-3.890625,2.390625
1696296313134,-0.40478516,-0.9109497,0.1984253,3.734375,-0.4375,2.328125
1696296313181,-0.37646484,-0.9060669,0.12884521,-0.1875,-2.03125,2.328125
1696296313225,-0.3876953,-0.9133911,0.1749878,1.296875,-2.0625,0.296875
1696296313254,-0.36328125,-0.9209595,0.12908936,-3.96875,-2.90625,-0.359375
1696296313301,-0.3894043,-0.91656494,0.15472412,-8.5625,-2.890625,-1.078125
1696296313346,-0.37573242,-0.9138794,0.18548584,-6.890625,0.21875,-2.765625
1696296313375,-0.4140625,-0.90045166,0.23651123,-8.171875,-6.1875,1.71875
1696296313423,-0.39135742,-0.9458618,0.1906128,-8.046875,-2.8125,-0.328125
1696296313450,-0.39453125,-0.90997314,0.20819092,-5.140625,-0.4375,-1.796875
1696296313497,-0.39331055,-0.9143677,0.23114014,-3.828125,-1.859375,-0.671875
1696296313541,-0.41088867,-0.91485596,0.23577881,-3.28125,-1.53125,0.046875
1696296313570,-0.4116211,-0.90826416,0.23773193,-0.296875,-1.15625,1.390625
1696296313614,-0.4033203,-0.9014282,0.22210693,1.0625,-2.015625,1.703125
1696296313645,-0.39868164,-0.9158325,0.2177124,1.53125,-0.921875,1.171875
1696296313694,-0.40698242,-0.9163208,0.22454834,2.375,-0.59375,1.53125
1696296313736,-0.40063477,-0.93341064,0.2189331,6.1875,0.828125,2.53125
1696296313765,-0.3857422,-0.9199829,0.16473389,3.484375,-1.578125,2.390625
1696296313810,-0.38183594,-0.9260864,0.21966553,5.5,0.484375,2.25
1696296313858,-0.38183594,-0.911438,0.17034912,0.671875,-2.25,1.515625
1696296313884,-0.37426758,-0.91729736,0.16522217,1.875,-2.359375,2.171875
1696296313929,-0.36669922,-0.9373169,0.16448975,-0.234375,-0.25,-0.3125
1696296313959,-0.34594727,-0.91851807,0.13397217,-2.265625,-2.15625,-1.328125
1696296314006,-0.37036133,-0.9170532,0.1618042,-4.3125,-0.46875,-1.40625
1696296314049,-0.3671875,-0.9204712,0.16326904,-6.71875,0.84375,-3.71875
1696296314078,-0.40771484,-0.91778564,0.21478271,-5.0,-1.359375,-2.046875
1696296314124,-0.37402344,-0.90631104,0.20135498,-4.921875,-4.390625,-1.96875
1696296314154,-0.390625,-0.9348755,0.19720459,-5.328125,1.1875,-2.765625
1696296314200,-0.39819336,-0.9067993,0.22137451,-4.796875,-1.421875,-2.703125
1696296314244,-0.39916992,-0.91363525,0.22259521,-2.90625,-1.125,-0.421875
1696296314274,-0.41796875,-0.89971924,0.22918701,-2.28125,-0.875,-0.515625
1696296314319,-0.40722656,-0.91485596,0.2164917,0.5,-2.28125,1.4375
1696296314349,-0.41455078,-0.92022705,0.2255249,2.921875,0.296875,1.25
1696296314395,-0.40820312,-0.9312134,0.19451904,2.421875,2.859375,1.6875
1696296314439,-0.41577148,-0.9312134,0.22698975,5.265625,1.984375,2.171875
1696296314471,-0.3864746,-0.9192505,0.18865967,1.796875,4.703125,1.03125
1696296314514,-0.375,-0.9199829,0.17156982,-1.9375,1.25,0.3125
1696296314560,-0.38671875,-0.91851807,0.2140503,0.703125,1.0625,1.140625
1696296314589,-0.38330078,-0.9019165,0.22210693,2.640625,-1.53125,1.109375
1696296314635,-0.37841797,-0.897522,0.17523193,-0.09375,-2.84375,-0.296875
1696296314665,-0.3774414,-0.9104614,0.17913818,-2.5,-1.875,-0.484375
1696296314710,-0.38012695,-0.92755127,0.1786499,-4.984375,-3.40625,-1.09375
1696296314755,-0.3647461,-0.91534424,0.18157959,-4.484375,0.984375,-1.734375
1696296314785,-0.39331055,-0.8804321,0.22088623,-3.171875,-3.78125,-0.796875
1696296314829,-0.40576172,-0.9246216,0.23040771,-3.59375,-7.5625,-2.859375
1696296314860,-0.4008789,-0.94781494,0.21282959,-6.0625,-0.21875,-5.0625
1696296314907,-0.39624023,-0.9024048,0.22064209,-5.9375,-4.09375,-5.171875
1696296314955,-0.42822266,-0.9104614,0.25701904,-5.328125,-1.890625,-2.4375
1696296314979,-0.42651367,-0.88946533,0.22796631,-4.921875,-1.78125,-1.453125
1696296315026,-0.46264648,-0.909729,0.27630615,2.03125,1.03125,3.625
1696296315058,-0.4128418,-0.9036255,0.23797607,0.046875,2.21875,1.3125
1696296315100,-0.45117188,-0.9104614,0.2723999,6.015625,2.890625,4.265625
1696296315159,-0.41064453,-0.8892212,0.22064209,7.9375,0.59375,4.34375
1696296315173,-0.38110352,-0.90045166,0.22015381,7.578125,0.734375,4.203125
1696296315223,-0.38476562,-0.9180298,0.2062378,5.90625,2.78125,2.484375
1696296315265,-0.3791504,-0.9158325,0.18572998,3.296875,0.609375,1.828125
1696296315294,-0.38500977,-0.9104614,0.20062256,0.640625,-0.796875,0.828125
1696296315340,-0.3708496,-0.92022705,0.17523193,-0.4375,1.171875,0.484375
1696296315370,-0.37158203,-0.9163208,0.17181396,-3.4375,-1.453125,0.40625
1696296315415,-0.35498047,-0.9002075,0.17596436,-5.78125,-0.96875,-1.265625
1696296315459,-0.38305664,-0.91241455,0.230896,-5.9375,-0.703125,-1.859375
1696296315489,-0.36889648,-0.9031372,0.19110107,-8.375,-1.96875,-2.078125
1696296315536,-0.39941406,-0.89849854,0.26019287,-8.109375,-7.265625,-1.578125
1696296315564,-0.40722656,-0.94317627,0.22601318,-9.359375,-0.96875,-3.03125
1696296315609,-0.39819336,-0.89678955,0.22894287,-6.90625,-3.875,-4.296875
1696296315654,-0.42236328,-0.8796997,0.2753296,-5.75,0.296875,-1.390625
1696296315684,-0.4194336,-0.8933716,0.29315186,-2.09375,-2.375,-0.59375
1696296315746,-0.42163086,-0.8977661,0.26312256,1.421875,-0.71875,0.609375
1696296315760,-0.4260254,-0.9109497,0.26727295,2.65625,-3.65625,0.484375
1696296315805,-0.43920898,-0.9055786,0.27703857,5.28125,0.875,0.140625
1696296315851,-0.42700195,-0.90045166,0.23260498,2.515625,1.59375,0.75
1696296315879,-0.42016602,-0.90460205,0.26434326,6.15625,1.125,0.890625
1696296315925,-0.41992188,-0.91778564,0.24407959,5.0625,2.96875,0.28125
1696296315969,-0.3996582,-0.9104614,0.23236084,5.25,2.28125,1.6875
1696296315999,-0.40014648,-0.90216064,0.20111084,5.140625,0.859375,1.265625
1696296316047,-0.38598633,-0.8999634,0.18572998,2.453125,0.46875,0.859375
1696296316073,-0.38012695,-0.92437744,0.17791748,-0.71875,-1.359375,0.34375
1696296316120,-0.37280273,-0.89385986,0.18817139,-4.546875,-2.3125,-1.453125
1696296316167,-0.39868164,-0.93218994,0.15789795,-7.234375,-1.25,-3.359375
1696296316194,-0.39990234,-0.9060669,0.21917725,-8.296875,1.875,-5.875
1696296316242,-0.3779297,-0.8789673,0.26531982,-6.09375,-3.578125,-5.046875
1696296316284,-0.43115234,-0.9067993,0.20648193,-7.3125,2.328125,-4.390625
1696296316317,-0.4333496,-0.895813,0.27069092,-7.203125,0.46875,-2.890625
1696296316359,-0.43920898,-0.8760376,0.29608154,-3.0,-0.859375,-1.265625
1696296316389,-0.4399414,-0.8689575,0.29437256,-1.40625,-0.625,-0.53125
1696296316436,-0.4560547,-0.8772583,0.29388428,0.5625,-2.328125,1.515625
1696296316479,-0.4416504,-0.89678955,0.27752686,4.828125,-1.109375,1.90625
1696296316511,-0.42211914,-0.89971924,0.23699951,3.84375,0.25,1.71875
1696296316555,-0.4128418,-0.9168091,0.22894287,4.71875,0.375,3.09375
1696296316584,-0.42260742,-0.8999634,0.22528076,4.171875,-2.1875,3.859375
1696296316629,-0.42114258,-0.90216064,0.23382568,5.359375,-0.9375,1.765625
1696296316676,-0.39746094,-0.9043579,0.23040771,4.734375,-1.734375,1.765625
1696296316704,-0.4260254,-0.89508057,0.23553467,3.046875,-1.1875,0.703125
1696296316750,-0.42382812,-0.8933716,0.21551514,4.484375,-0.84375,2.5
1696296316782,-0.39990234,-0.9187622,0.15130615,-2.65625,-2.0625,0.921875
1696296316826,-0.38452148,-0.9102173,0.20794678,-5.8125,-0.84375,1.046875
1696296316872,-0.3786621,-0.8911743,0.2230835,-5.71875,-2.171875,-0.828125
1696296316899,-0.39575195,-0.91363525,0.21282959,-7.390625,-5.71875,-1.625
1696296316948,-0.42944336,-0.9031372,0.25531006,-7.1875,-3.25,-2.90625
1696296316974,-0.43652344,-0.8948364,0.25579834,-5.015625,0.390625,-3.921875
1696296317022,-0.43603516,-0.8921509,0.24041748,-5.53125,1.421875,-2.671875
1696296317066,-0.41748047,-0.8945923,0.27337646,-3.65625,-0.765625,-1.046875
1696296317094,-0.44091797,-0.88726807,0.28167725,-1.703125,-1.015625,0.9375
1696296317140,-0.42822266,-0.88946533,0.2855835,0.03125,-0.578125,1.6875
1696296317185,-0.42236328,-0.8948364,0.25360107,2.8125,1.1875,1.796875
1696296317214,-0.42578125,-0.8916626,0.2645874,2.421875,0.09375,2.203125
1696296317276,-0.4091797,-0.9036255,0.25994873,4.34375,-0.4375,2.828125
1696296317291,-0.3864746,-0.9002075,0.2453003,6.921875,-1.359375,2.671875
1696296317334,-0.4140625,-0.9194946,0.26531982,5.453125,-3.53125,0.90625
1696296317380,-0.45336914,-0.8965454,0.21331787,0.46875,-3.328125,-0.21875
1696296317409,-0.41674805,-0.90289307,0.21868896,2.015625,-0.484375,0.171875
1696296317455,-0.3972168,-0.90460205,0.20599365,2.734375,3.078125,2.296875
1696296317484,-0.38232422,-0.90460205,0.17913818,0.734375,0.609375,1.21875
1696296317529,-0.39379883,-0.9065552,0.1984253,-0.484375,0.84375,0.390625
1696296317592,-0.38598633,-0.9006958,0.16644287,-3.03125,0.203125,-1.984375
1696296317605,-0.3798828,-0.9241333,0.20648193,-5.875,0.21875,-3.9375
1696296317649,-0.3972168,-0.85943604,0.24700928,-7.796875,-2.078125,-0.828125
1696296317679,-0.42041016,-0.90411377,0.22918701,-3.953125,2.015625,-2.65625
1696296317724,-0.39526367,-0.9299927,0.23626709,-6.75,-1.484375,-4.484375
1696296317770,-0.45214844,-0.86553955,0.2789917,-2.546875,1.484375,-1.09375
1696296317799,-0.42529297,-0.8897095,0.28948975,-2.078125,1.078125,-0.578125
1696296317845,-0.44750977,-0.89630127,0.27313232,0.09375,-0.203125,1.875
1696296317891,-0.4206543,-0.8911743,0.28948975,3.890625,-1.453125,2.109375
1696296317920,-0.40771484,-0.91485596,0.24578857,3.125,-1.421875,2.421875
1696296317965,-0.42358398,-0.90509033,0.25531006,3.84375,-1.765625,2.46875
1696296317995,-0.4152832,-0.91778564,0.260437,5.25,-1.109375,2.375
1696296318044,-0.4074707,-0.8977661,0.22845459,3.6875,-1.96875,3.25
1696296318084,-0.4086914,-0.9089966,0.23138428,1.03125,-3.203125,2.4375
1696296318114,-0.40307617,-0.911438,0.21282959,2.125,-1.09375,2.890625
1696296318164,-0.3857422,-0.9048462,0.18109131,0.125,-0.828125,-0.46875
1696296318190,-0.38183594,-0.90167236,0.19256592,0.84375,-4.75,-0.171875
1696296318234,-0.39038086,-0.89434814,0.22015381,-0.125,-3.90625,-0.859375
1696296318280,-0.39746094,-0.9038696,0.21307373,-0.8125,-1.75,-1.890625
1696296318309,-0.40039062,-0.9109497,0.19110107,-3.0625,-0.921875,-3.203125
1696296318354,-0.3881836,-0.8999634,0.2008667,-2.984375,0.59375,-2.40625
1696296318384,-0.41333008,-0.90093994,0.24334717,-3.78125,-0.453125,-3.40625
1696296318429,-0.44262695,-0.94317627,0.22210693,-10.0,1.046875,-4.765625
1696296318477,-0.42504883,-0.88067627,0.24188232,-6.46875,1.015625,-3.734375
1696296318504,-0.42993164,-0.89385986,0.2868042,-6.984375,0.65625,-2.1875
1696296318551,-0.45654297,-0.88531494,0.27508545,-3.0,2.015625,-0.375
1696296318596,-0.42358398,-0.89508057,0.26776123,0.5,-0.84375,1.671875
1696296318624,-0.4243164,-0.8936157,0.26312256,3.265625,-2.359375,2.1875
1696296318672,-0.41748047,-0.8965454,0.23724365,4.5625,-1.984375,2.578125
1696296318701,-0.42797852,-0.91485596,0.2345581,2.5625,-1.984375,2.34375
1696296318749,-0.44067383,-0.9060669,0.2453003,4.703125,-1.203125,3.6875
1696296318789,-0.40429688,-0.8887329,0.21502686,2.375,-0.21875,1.671875
1696296318819,-0.4255371,-0.90704346,0.2423706,4.109375,0.078125,1.796875
1696296318863,-0.40771484,-0.8960571,0.2255249,3.046875,-0.78125,1.484375
1696296318895,-0.4038086,-0.8977661,0.19622803,1.625,-4.609375,1.890625
1696296318939,-0.3881836,-0.911438,0.19281006,3.21875,-3.59375,1.296875
1696296318985,-0.41186523,-0.89434814,0.17449951,1.328125,-7.640625,1.640625
1696296319016,-0.40795898,-0.90411377,0.19085693,-0.546875,-6.3125,0.171875
1696296319061,-0.3857422,-0.9031372,0.1954956,1.546875,-3.421875,1.515625
1696296319105,-0.4020996,-0.90460205,0.18353271,-4.96875,-4.859375,-1.0
1696296319136,-0.4260254,-0.9385376,0.2296753,-5.5,1.390625,-2.953125
1696296319183,-0.40844727,-0.9180298,0.15057373,-5.734375,0.875,-4.578125
1696296319226,-0.4091797,-0.8970337,0.24310303,-4.484375,1.421875,-1.3125
1696296319254,-0.46020508,-0.8821411,0.26263428,-3.0625,2.015625,-1.1875
1696296319299,-0.41137695,-0.8977661,0.23138428,-0.953125,-0.609375,0.90625
1696296319346,-0.43896484,-0.91534424,0.23651123,1.96875,0.25,1.640625
1696296319374,-0.4116211,-0.90582275,0.22113037,2.0,1.59375,0.984375
1696296319405,-0.41503906,-0.9187622,0.23114014,2.71875,0.671875,1.125
1696296319449,-0.42871094,-0.9204712,0.22625732,1.234375,1.125,1.796875
1696296319496,-0.40283203,-0.8953247,0.20501709,1.15625,1.296875,-0.546875
1696296319525,-0.41210938,-0.8867798,0.21282959,1.984375,-1.34375,2.34375
1696296319571,-0.41210938,-0.91412354,0.20428467,1.34375,-3.640625,3.328125
1696296319600,-0.3779297,-0.8945923,0.20379639,3.28125,-1.96875,2.609375
1696296319647,-0.39233398,-0.909729,0.15863037,1.1875,-4.0625,1.96875
1696296319690,-0.39257812,-0.9006958,0.16278076,-1.484375,-4.0625,0.953125
1696296319719,-0.3762207,-0.90338135,0.16937256,-5.171875,-2.6875,-1.0
1696296319765,-0.38793945,-0.90802,0.1774292,-5.90625,-1.046875,-1.984375
1696296319842,-0.4128418,-0.89385986,0.23553467,-2.46875,-4.71875,0.625
1696296319848,-0.40698242,-0.95635986,0.18670654,-6.109375,1.984375,-5.09375
1696296319884,-0.39794922,-0.8909302,0.2177124,-4.40625,-1.109375,-5.265625
1696296319914,-0.453125,-0.87579346,0.26434326,-3.296875,1.375,-1.734375
1696296319962,-0.4362793,-0.9067993,0.27166748,-3.265625,2.953125,-2.359375
1696296320004,-0.4038086,-0.8867798,0.22991943,0.46875,-2.5,0.453125
1696296320035,-0.45288086,-0.9036255,0.25653076,5.015625,-1.203125,0.890625
1696296320080,-0.40942383,-0.90509033,0.22454834,5.03125,-1.015625,2.3125
1696296320110,-0.41674805,-0.92266846,0.21942139,4.0,-2.34375,2.015625
1696296320156,-0.42138672,-0.91534424,0.23114014,5.296875,-1.796875,2.125
1696296320200,-0.4116211,-0.9024048,0.184021,3.609375,-1.25,2.171875
1696296320245,-0.39916992,-0.89801025,0.19891357,-0.09375,-3.546875,0.953125
1696296320274,-0.4152832,-0.9055786,0.21844482,3.390625,-0.25,2.265625
1696296320305,-0.41210938,-0.9199829,0.1876831,2.4375,-1.71875,1.53125
1696296320350,-0.39916992,-0.89678955,0.17376709,1.109375,-1.875,1.4375
1696296320409,-0.39404297,-0.9216919,0.17840576,0.546875,-2.078125,1.09375
1696296320441,-0.3791504,-0.9019165,0.1486206,-4.09375,-1.90625,0.890625
1696296320470,-0.38842773,-0.9102173,0.17474365,-6.71875,-0.640625,-1.75
1696296320544,-0.39379883,-0.9006958,0.19720459,-3.53125,-1.078125,-0.390625
1696296320559,-0.42700195,-0.9146118,0.20648193,-3.4375,-3.875,-1.296875
1696296320589,-0.40600586,-0.9397583,0.1671753,-5.84375,2.40625,-5.078125
1696296320636,-0.40283203,-0.90582275,0.2177124,-4.53125,2.65625,-5.4375
1696296320664,-0.4260254,-0.89019775,0.22991943,-5.484375,3.734375,-3.140625
1696296320711,-0.4333496,-0.8880005,0.26922607,-4.3125,2.390625,-3.109375
1696296320739,-0.43481445,-0.88116455,0.26654053,1.546875,0.625,0.359375
1696296320785,-0.4428711,-0.9072876,0.25091553,4.0,-2.5,2.0625
1696296320816,-0.40234375,-0.89727783,0.22381592,5.578125,-0.328125,3.28125
1696296320861,-0.41210938,-0.9146118,0.21063232,3.03125,-2.515625,2.6875
1696296320905,-0.4230957,-0.909729,0.23114014,4.8125,-3.59375,3.859375
1696296320936,-0.4140625,-0.9216919,0.19818115,3.34375,-0.9375,1.296875
1696296320981,-0.4326172,-0.90875244,0.21551514,3.046875,0.578125,1.609375
1696296321009,-0.3955078,-0.8909302,0.16888428,0.3125,1.09375,0.59375
1696296321056,-0.40942383,-0.90460205,0.21917725,0.796875,-0.859375,0.5625
1696296321101,-0.40234375,-0.91729736,0.18328857,1.078125,1.203125,-0.71875
1696296321131,-0.3959961,-0.8982544,0.16009521,-0.4375,-1.859375,0.0625
1696296321176,-0.38745117,-0.91656494,0.16522217,-2.28125,-1.328125,-0.234375
1696296321219,-0.38427734,-0.9024048,0.16815186,-6.125,-1.890625,-1.9375
1696296321249,-0.37939453,-0.911438,0.17840576,-6.640625,2.359375,-2.5625
1696296321295,-0.42163086,-0.87872314,0.23822021,-0.421875,-6.265625,2.0
1696296321325,-0.41918945,-0.944397,0.1539917,-9.984375,0.875,-5.6875
1696296321369,-0.39770508,-0.9356079,0.22479248,-8.9375,4.0,-4.796875
1696296321420,-0.43237305,-0.8731079,0.24432373,-8.671875,1.75,-3.359375
1696296321445,-0.43896484,-0.8755493,0.2662964,-4.109375,1.265625,-0.90625
1696296321490,-0.4440918,-0.87945557,0.28533936,-1.375,-1.78125,0.1875
1696296321521,-0.4260254,-0.89971924,0.25360107,1.09375,-1.3125,1.96875
1696296321565,-0.42333984,-0.90093994,0.23846436,3.53125,-1.5,2.421875
1696296321611,-0.43676758,-0.9048462,0.23944092,2.265625,-2.75,2.578125
1696296321640,-0.42285156,-0.9109497,0.23358154,4.234375,-2.03125,4.625
1696296321685,-0.39135742,-0.90093994,0.2033081,1.265625,-1.0,1.15625
1696296321732,-0.42895508,-0.91485596,0.2189331,0.234375,-1.828125,0.9375
1696296321759,-0.41259766,-0.9043579,0.2164917,-1.28125,-1.375,-2.078125
1696296321805,-0.41577148,-0.8833618,0.22723389,-4.15625,-2.90625,-1.75
1696296321836,-0.40942383,-0.8953247,0.2399292,1.90625,-3.84375,-0.890625
1696296321881,-0.41381836,-0.90411377,0.17181396,-3.390625,-2.78125,-0.078125
1696296321927,-0.4116211,-0.89556885,0.19378662,-3.546875,-3.984375,1.25
1696296321956,-0.40063477,-0.894104,0.21722412,-5.265625,0.859375,-1.296875
1696296322002,-0.41601562,-0.8779907,0.22723389,-3.796875,-3.125,-0.21875
1696296322079,-0.46777344,-0.9116821,0.23602295,-3.328125,-1.34375,-0.09375
1696296322082,-0.41723633,-0.92266846,0.2164917,-6.375,4.640625,-3.3125
1696296322121,-0.40893555,-0.9043579,0.23065186,-7.484375,1.59375,-5.90625
1696296322150,-0.42626953,-0.88531494,0.27264404,-7.171875,3.625,-4.4375
1696296322196,-0.4489746,-0.8652954,0.3156128,-4.515625,-0.34375,-1.921875
1696296322224,-0.44384766,-0.8777466,0.2802124,0.984375,-2.421875,0.4375
1696296322272,-0.44067383,-0.88848877,0.26654053,4.578125,-3.171875,1.703125
1696296322315,-0.43139648,-0.87994385,0.26556396,2.75,-1.625,1.234375
1696296322344,-0.4428711,-0.9048462,0.24725342,3.6875,-1.421875,2.203125
1696296322391,-0.44555664,-0.88482666,0.26287842,5.296875,0.984375,0.59375
1696296322434,-0.42700195,-0.8945923,0.22503662,2.78125,-0.40625,0.921875
1696296322465,-0.43896484,-0.8904419,0.21820068,4.78125,-5.71875,2.1875
1696296322510,-0.40673828,-0.895813,0.21380615,5.203125,-3.453125,0.71875
1696296322538,-0.42529297,-0.8960571,0.21282959,2.1875,-1.328125,1.15625
1696296322586,-0.41479492,-0.89630127,0.1876831,1.359375,-1.59375,0.234375
1696296322631,-0.42016602,-0.89508057,0.1642456,-3.625,1.125,-0.40625
1696296322677,-0.4182129,-0.90167236,0.23187256,-5.546875,2.671875,-2.75
1696296322704,-0.42456055,-0.8362427,0.26361084,-1.609375,-1.65625,0.15625
1696296322736,-0.49169922,-0.9077759,0.2489624,2.078125,0.15625,3.609375
1696296322782,-0.39697266,-0.90704346,0.18817139,-6.0625,4.578125,-4.671875
1696296322827,-0.35888672,-0.92266846,0.168396,-10.703125,-0.34375,-5.0625
1696296322855,-0.4260254,-0.87457275,0.30584717,-3.03125,-1.515625,-2.40625
1696296322902,-0.46533203,-0.87677,0.2682495,-2.125,-2.75,2.09375
1696296322929,-0.4658203,-0.87872314,0.29241943,2.375,-4.578125,3.109375
1696296322977,-0.4477539,-0.9053345,0.21990967,1.4375,-3.546875,2.71875
1696296323020,-0.4248047,-0.8989868,0.26239014,1.609375,-4.8125,2.359375
1696296323051,-0.4501953,-0.8858032,0.26531982,4.84375,-1.578125,3.59375
1696296323094,-0.4296875,-0.8977661,0.21795654,1.265625,-1.421875,2.078125
1696296323170,-0.41503906,-0.90997314,0.22235107,0.828125,-1.734375,1.390625
1696296323173,-0.4194336,-0.90753174,0.23968506,0.859375,0.15625,0.015625
1696296323214,-0.42895508,-0.8779907,0.22454834,3.875,0.359375,2.109375
1696296323244,-0.40795898,-0.8970337,0.17791748,0.40625,-5.421875,1.9375
1696296323291,-0.41918945,-0.897522,0.22454834,2.0625,-0.0625,2.140625
1696296323337,-0.39624023,-0.89801025,0.17279053,-0.03125,-0.734375,0.9375
1696296323363,-0.38549805,-0.9126587,0.1227417,-9.734375,-0.140625,-0.03125
1696296323410,-0.39868164,-0.8909302,0.262146,-6.09375,0.171875,-1.265625
1696296323440,-0.43432617,-0.862854,0.2958374,-4.0625,-6.546875,0.953125
1696296323484,-0.41430664,-0.95318604,0.19525146,-4.265625,0.484375,-2.796875
1696296323533,-0.39282227,-0.9072876,0.20770264,-5.3125,-0.296875,-5.25
1696296323560,-0.43554688,-0.8858032,0.28851318,-6.65625,-0.046875,-3.546875
1696296323606,-0.46606445,-0.86260986,0.31658936,-3.234375,-0.546875,-0.9375
1696296323635,-0.43408203,-0.8862915,0.29022217,-1.609375,-1.65625,-0.21875
1696296323679,-0.44262695,-0.89263916,0.25897217,2.875,-2.90625,2.25
1696296323725,-0.4309082,-0.8826294,0.27264404,3.15625,-2.65625,2.625
1696296323757,-0.42944336,-0.9031372,0.2543335,2.546875,-1.703125,2.234375
1696296323801,-0.43115234,-0.8867798,0.2506714,3.3125,-1.90625,3.625
1696296323848,-0.41674805,-0.9024048,0.23016357,3.875,-1.9375,2.390625
1696296323876,-0.42358398,-0.9031372,0.23016357,3.265625,-1.96875,2.40625
1696296323920,-0.41723633,-0.9060669,0.23065186,4.390625,-0.109375,2.671875
1696296323950,-0.41455078,-0.90509033,0.21624756,3.09375,-0.6875,1.765625
1696296323994,-0.39990234,-0.8994751,0.18377686,1.03125,-0.828125,1.796875
1696296324041,-0.39379883,-0.9187622,0.17645264,-3.953125,-1.9375,0.375
1696296324069,-0.3713379,-0.90045166,0.16986084,-7.046875,0.53125,-1.40625
1696296324116,-0.41186523,-0.91851807,0.23602295,-7.71875,2.390625,-2.53125
1696296324160,-0.41552734,-0.87384033,0.22039795,-7.578125,0.859375,-1.3125
1696296324189,-0.39526367,-0.93707275,0.26141357,-5.109375,-0.921875,-3.28125
1696296324236,-0.40405273,-0.92193604,0.22137451,-9.671875,3.140625,-6.3125
1696296324264,-0.41333008,-0.8687134,0.26190186,-8.03125,3.640625,-4.484375
1696296324309,-0.43579102,-0.8604126,0.30804443,-4.359375,2.09375,-2.34375
1696296324357,-0.4489746,-0.87384033,0.32659912,-0.140625,0.296875,0.078125
1696296324384,-0.4506836,-0.8772583,0.31243896,3.75,-2.09375,1.984375
1696296324429,-0.43725586,-0.8945923,0.28167725,7.546875,-2.0,3.09375
1696296324461,-0.41186523,-0.88897705,0.25823975,5.65625,-2.78125,3.359375
1696296324505,-0.42016602,-0.9180298,0.25360107,4.609375,-2.796875,2.78125
1696296324552,-0.41601562,-0.895813,0.21868896,2.0,-2.3125,1.640625
1696296324579,-0.41455078,-0.88360596,0.25286865,2.78125,-1.5625,1.4375
1696296324625,-0.41088867,-0.8921509,0.21868896,1.671875,-2.921875,1.953125
1696296324654,-0.41308594,-0.90093994,0.23504639,2.484375,-1.984375,0.53125
1696296324702,-0.41479492,-0.913147,0.22479248,2.625,-0.734375,1.6875
1696296324744,-0.40771484,-0.892395,0.19915771,0.59375,-3.453125,2.90625
1696296324774,-0.3779297,-0.9089966,0.16790771,-0.140625,-0.609375,1.203125
1696296324835,-0.39916992,-0.9055786,0.18060303,-5.8125,2.484375,-0.546875
1696296324850,-0.40039062,-0.8987427,0.2514038,-4.53125,1.578125,-1.984375
1696296324897,-0.40795898,-0.8867798,0.27020264,-1.53125,-3.09375,1.171875
1696296324940,-0.3984375,-0.92926025,0.19671631,-5.203125,-2.90625,-3.328125
1696296324969,-0.41235352,-0.9155884,0.24871826,-4.734375,2.953125,-3.46875
1696296325016,-0.41357422,-0.88360596,0.26409912,-3.984375,-0.28125,-2.328125
1696296325059,-0.44360352,-0.878479,0.29486084,-1.28125,-0.265625,0.015625
1696296325090,-0.42089844,-0.8945923,0.27972412,0.34375,-2.671875,0.890625
1696296325134,-0.43432617,-0.89508057,0.26531982,3.609375,-2.578125,1.96875
1696296325165,-0.4033203,-0.9006958,0.22698975,4.609375,-1.296875,2.03125
1696296325209,-0.40893555,-0.90753174,0.22991943,0.640625,-2.25,1.015625
1696296325271,-0.4248047,-0.8999634,0.27093506,5.6875,-3.375,1.6875
1696296325284,-0.41723633,-0.91656494,0.21453857,0.671875,-1.078125,0.703125
1696296325329,-0.39941406,-0.9014282,0.21795654,3.703125,-3.8125,2.859375
1696296325360,-0.41088867,-0.8936157,0.2020874,2.015625,-2.90625,0.640625
1696296325404,-0.41796875,-0.9104614,0.19744873,2.71875,0.078125,1.625
1696296325449,-0.39331055,-0.9053345,0.1930542,1.4375,0.40625,0.78125
1696296325480,-0.38842773,-0.91534424,0.16107178,-2.25,0.828125,-0.34375
1696296325526,-0.39257812,-0.8982544,0.17034912,-5.421875,4.109375,-1.390625
1696296325555,-0.38745117,-0.90948486,0.23382568,-6.53125,5.140625,-4.390625
1696296325600,-0.4453125,-0.83795166,0.25482178,3.5,7.140625,0.78125
1696296325648,-0.3996582,-0.9541626,0.21307373,-5.8125,4.9375,-1.8125
1696296325674,-0.3876953,-0.9194946,0.24798584,-4.453125,5.53125,-3.15625
1696296325721,-0.40820312,-0.89849854,0.22991943,-5.484375,3.078125,-4.03125
1696296325781,-0.41552734,-0.89190674,0.3007202,-0.390625,3.71875,-2.609375
1696296325794,-0.41479492,-0.8911743,0.2975464,-0.125,-0.953125,-0.734375
1696296325841,-0.40527344,-0.90289307,0.27679443,5.65625,-3.71875,0.828125
1696296325870,-0.42895508,-0.8928833,0.24554443,1.5625,-6.265625,0.40625
1696296325917,-0.42016602,-0.91241455,0.25726318,2.984375,-3.796875,2.453125
1696296325960,-0.41479492,-0.8855591,0.22918701,3.5625,-4.46875,3.59375
1696296325989,-0.4104004,-0.9104614,0.20257568,2.640625,-4.453125,2.421875
1696296326036,-0.40527344,-0.9151001,0.18914795,0.859375,0.03125,1.359375
1696296326079,-0.41137695,-0.9014282,0.23626709,1.296875,-0.71875,1.28125
1696296326109,-0.4086914,-0.9031372,0.215271,3.84375,-0.703125,1.40625
1696296326155,-0.38793945,-0.9072876,0.1774292,-0.03125,-1.65625,0.8125
1696296326184,-0.38623047,-0.93170166,0.17523193,-4.859375,-0.375,0.28125
1696296326231,-0.38476562,-0.9143677,0.15740967,-12.203125,5.203125,-3.015625
1696296326277,-0.38256836,-0.87286377,0.18695068,-1.609375,12.25,-2.078125
1696296326304,-0.4038086,-0.89434814,0.309021,-7.640625,3.65625,-3.890625
1696296326350,-0.41870117,-0.8657837,0.2819214,-0.84375,1.640625,-2.375
1696296326380,-0.39233398,-0.94317627,0.2526245,-10.921875,0.96875,-5.5625
1696296326424,-0.44506836,-0.8831177,0.3287964,-0.40625,-2.0625,-1.9375
1696296326469,-0.41674805,-0.89190674,0.27996826,-0.25,-3.484375,-0.203125
1696296326500,-0.45751953,-0.88238525,0.27972412,3.359375,-4.296875,2.09375
1696296326548,-0.41723633,-0.91534424,0.2609253,3.90625,-4.03125,4.078125
1696296326577,-0.40795898,-0.8989868,0.24359131,0.875,-5.3125,3.640625
1696296326620,-0.41552734,-0.90802,0.26116943,0.859375,-7.125,4.375
1696296326664,-0.42163086,-0.8953247,0.25335693,3.828125,-5.921875,5.140625
1696296326695,-0.41967773,-0.9031372,0.22747803,2.59375,-5.390625,2.640625
1696296326757,-0.38500977,-0.89727783,0.21063232,2.75,-5.609375,2.46875
1696296326769,-0.40283203,-0.91534424,0.2387085,3.25,-6.9375,1.640625
1696296326817,-0.3894043,-0.9102173,0.19451904,3.25,-3.828125,1.5625
1696296326860,-0.39086914,-0.91729736,0.1864624,1.515625,-4.640625,1.671875
1696296326889,-0.38867188,-0.90753174,0.19500732,0.25,-3.0625,0.328125
1696296326936,-0.37060547,-0.9158325,0.15374756,-3.953125,-0.28125,-1.25
1696296326979,-0.35864258,-0.9229126,0.15447998,-12.4375,-1.9375,-4.140625
1696296327010,-0.40942383,-0.8687134,0.2819214,-4.515625,1.453125,-3.40625
1696296327055,-0.4206543,-0.8982544,0.21185303,-9.390625,-2.828125,-2.171875
1696296327084,-0.39990234,-0.9373169,0.215271,-5.5625,-0.640625,-5.828125
1696296327129,-0.4387207,-0.9014282,0.2814331,-5.078125,4.0625,-5.25
1696296327174,-0.45507812,-0.8723755,0.27581787,-3.03125,1.0625,-1.640625
1696296327205,-0.44506836,-0.8809204,0.276062,-1.46875,0.171875,-0.734375
1696296327249,-0.4477539,-0.90411377,0.28118896,3.65625,-0.296875,2.609375
1696296327279,-0.4255371,-0.8953247,0.2543335,3.859375,-0.71875,3.03125
1696296327326,-0.41748047,-0.9065552,0.2387085,2.921875,-0.515625,3.34375
1696296327370,-0.38720703,-0.90460205,0.2243042,1.1875,-0.421875,2.015625
1696296327399,-0.4169922,-0.9014282,0.24554443,0.71875,-4.765625,2.125
1696296327446,-0.4074707,-0.9067993,0.23114014,0.03125,-4.296875,0.6875
1696296327475,-0.42919922,-0.90826416,0.24188232,2.84375,-1.1875,1.59375
1696296327519,-0.41601562,-0.90338135,0.20941162,-0.359375,1.3125,-0.046875
1696296327566,-0.40234375,-0.90582275,0.20697021,0.40625,-0.390625,0.28125
1696296327595,-0.3918457,-0.8772583,0.1930542,1.890625,-0.75,0.96875
1696296327641,-0.38500977,-0.92437744,0.1930542,-0.40625,-1.28125,0.28125
1696296327688,-0.37402344,-0.9048462,0.15594482,-6.1875,-1.78125,-0.453125
1696296327715,-0.41455078,-0.89923096,0.26849365,-4.71875,-3.71875,-2.21875
1696296327760,-0.3894043,-0.90753174,0.21820068,-8.1875,-0.9375,-1.90625
1696296327791,-0.43017578,-0.89508057,0.2645874,-6.296875,-2.46875,-0.3125
1696296327837,-0.40112305,-0.91534424,0.2453003,-1.828125,1.859375,-4.171875
1696296327880,-0.4375,-0.8731079,0.28240967,-2.453125,2.28125,-0.125
1696296327909,-0.43920898,-0.89678955,0.29559326,-0.640625,-0.09375,0.125
1696296327957,-0.43188477,-0.8814087,0.2831421,2.921875,0.21875,1.828125
1696296327984,-0.43139648,-0.9014282,0.26776123,3.90625,-1.984375,2.03125
1696296328034,-0.41552734,-0.90411377,0.24212646,6.1875,0.046875,2.140625
1696296328075,-0.41625977,-0.91363525,0.24285889,5.546875,-1.25,3.03125
1696296328104,-0.41918945,-0.90802,0.2296753,5.71875,0.5,2.875
1696296328149,-0.39990234,-0.9043579,0.22698975,2.640625,-2.21875,2.4375
1696296328179,-0.41455078,-0.9031372,0.22796631,1.625,-1.25,1.21875
1696296328228,-0.40844727,-0.9102173,0.21356201,1.875,-0.140625,1.4375
1696296328271,-0.39038086,-0.8970337,0.20526123,0.859375,-0.5625,1.09375
1696296328300,-0.38720703,-0.90753174,0.20355225,-2.421875,0.21875,-0.765625
1696296328347,-0.40185547,-0.90997314,0.21063232,-1.578125,-0.8125,-0.390625
1696296328392,-0.36914062,-0.9055786,0.16351318,-2.578125,-2.4375,-0.609375
1696296328420,-0.40478516,-0.9151001,0.215271,-5.4375,-1.03125,-2.484375
1696296328466,-0.37231445,-0.89263916,0.21307373,-6.296875,-1.609375,-2.015625
1696296328495,-0.43408203,-0.88848877,0.25457764,-4.625,-2.78125,-0.65625
1696296328543,-0.42504883,-0.9475708,0.25897217,-6.640625,-1.609375,-5.0
1696296328586,-0.4321289,-0.88946533,0.2164917,-7.109375,0.765625,-2.84375
1696296328615,-0.40014648,-0.88116455,0.27166748,-3.90625,-2.265625,-0.96875
1696296328661,-0.44335938,-0.89312744,0.2748413,1.171875,3.75,0.109375
1696296328705,-0.45043945,-0.8945923,0.29364014,0.203125,-1.328125,1.671875
1696296328751,-0.40966797,-0.9031372,0.26507568,2.53125,-0.5625,2.03125
1696296328781,-0.4309082,-0.8989868,0.25946045,3.421875,0.5,2.28125
1696296328809,-0.40185547,-0.8965454,0.24725342,6.1875,-1.078125,3.078125
1696296328854,-0.41015625,-0.89508057,0.24017334,3.734375,-2.6875,3.40625
1696296328899,-0.40283203,-0.91412354,0.24334717,4.640625,-2.59375,2.359375
1696296328929,-0.41625977,-0.9031372,0.21209717,3.53125,-1.953125,1.5625
1696296328976,-0.39379883,-0.9031372,0.21844482,3.234375,-2.140625,1.59375
1696296329005,-0.40356445,-0.8999634,0.20648193,3.28125,-2.171875,1.515625
1696296329055,-0.38793945,-0.92022705,0.1876831,1.53125,-1.359375,1.421875
1696296329093,-0.39257812,-0.91534424,0.17132568,-1.109375,-2.59375,0.65625
1696296329125,-0.37353516,-0.91973877,0.16888428,-6.65625,-1.625,-1.609375
1696296329170,-0.37548828,-0.89434814,0.20574951,-4.5,-1.03125,-2.484375
1696296329214,-0.41918945,-0.9060669,0.25897217,-3.296875,-2.59375,-1.234375
1696296329245,-0.39819336,-0.9121704,0.18499756,-6.78125,-3.25,-1.328125
1696296329291,-0.40405273,-0.9365845,0.21868896,-7.453125,2.34375,-5.171875
1696296329319,-0.42260742,-0.8814087,0.22869873,-4.109375,2.5625,-1.359375
1696296329365,-0.43237305,-0.89849854,0.2819214,-3.09375,0.734375,-0.953125
1696296329394,-0.42993164,-0.8945923,0.28216553,0.671875,-0.15625,1.015625
1696296329441,-0.43310547,-0.8987427,0.26776123,2.921875,-1.890625,2.71875
1696296329488,-0.40576172,-0.8989868,0.246521,4.90625,-0.984375,2.8125
1696296329515,-0.4074707,-0.91778564,0.21429443,4.21875,-0.421875,2.921875
1696296329579,-0.40454102,-0.913147,0.21331787,2.671875,-0.546875,2.34375
1696296329604,-0.40576172,-0.9053345,0.22772217,1.578125,1.4375,-0.875
1696296329633,-0.41137695,-0.8945923,0.22845459,0.21875,0.1875,-0.03125
1696296329680,-0.40039062,-0.9038696,0.21697998,2.859375,-0.53125,0.828125
1696296329710,-0.41259766,-0.90997314,0.21356201,2.75,-1.078125,0.25
1696296329756,-0.37963867,-0.9060669,0.199646,1.828125,0.0625,-0.296875
1696296329802,-0.37548828,-0.9155884,0.16546631,-0.9375,-0.796875,-0.578125
1696296329833,-0.375,-0.92852783,0.16766357,-4.453125,0.703125,-1.984375
1696296329877,-0.36694336,-0.894104,0.2177124,-4.671875,-0.015625,-2.578125
1696296329904,-0.43115234,-0.89801025,0.22576904,-2.578125,-1.578125,-0.1875
1696296329951,-0.3972168,-0.927063,0.24505615,-4.90625,1.265625,-3.484375
1696296329994,-0.4086914,-0.92022705,0.22723389,-5.265625,3.96875,-3.8125
1696296330026,-0.43286133,-0.89385986,0.27264404,-4.453125,0.5625,-2.046875
1696296330087,-0.4128418,-0.89385986,0.277771,-2.390625,0.640625,-1.25
1696296330102,-0.42260742,-0.8977661,0.2675171,0.015625,-1.03125,0.53125
1696296330144,-0.42138672,-0.89849854,0.24993896,1.84375,-1.515625,1.296875
1696296330189,-0.4074707,-0.90093994,0.24945068,2.453125,-0.390625,0.765625
1696296330219,-0.42919922,-0.90948486,0.24920654,3.25,-0.671875,1.296875
1696296330264,-0.41723633,-0.895813,0.23236084,3.984375,-2.546875,2.390625
1696296330310,-0.4140625,-0.89556885,0.23651123,2.734375,-2.171875,1.34375
1696296330340,-0.39941406,-0.9089966,0.20965576,2.484375,-2.375,2.65625
1696296330386,-0.3942871,-0.91412354,0.20550537,1.890625,-1.640625,1.90625
1696296330414,-0.40893555,-0.911438,0.20770264,2.4375,-0.75,2.15625
1696296330476,-0.39013672,-0.8982544,0.1930542,0.1875,-0.0625,0.90625
1696296330505,-0.39794922,-0.9221802,0.19476318,-2.203125,-0.921875,0.25
1696296330534,-0.36694336,-0.9085083,0.18597412,-6.765625,-0.046875,-1.265625
1696296330581,-0.3881836,-0.91290283,0.21331787,-3.90625,2.125,-1.953125
1696296330609,-0.40185547,-0.881897,0.23065186,-10.1875,-4.53125,-1.09375
1696296330658,-0.41430664,-0.92022705,0.25238037,-4.1875,-1.53125,-3.265625
1696296330699,-0.43188477,-0.89312744,0.26727295,-5.921875,1.5,-4.078125
1696296330729,-0.45410156,-0.8753052,0.2868042,-4.390625,-2.921875,-1.25
1696296330776,-0.42626953,-0.8887329,0.28167725,0.421875,-0.046875,-0.9375
1696296330804,-0.44750977,-0.88604736,0.29364014,2.5,-0.53125,1.765625
1696296330851,-0.4243164,-0.89801025,0.24359131,2.984375,-0.640625,2.109375
1696296330895,-0.4140625,-0.90093994,0.25238037,3.78125,-1.53125,2.484375
1696296330925,-0.41992188,-0.90948486,0.23846436,3.15625,-2.375,2.1875
1696296330971,-0.38891602,-0.8953247,0.20941162,2.625,-2.578125,1.8125
1696296331016,-0.41918945,-0.9092407,0.23724365,2.375,-1.65625,1.25
1696296331045,-0.40942383,-0.8948364,0.2230835,1.921875,-2.1875,1.171875
1696296331107,-0.41235352,-0.9175415,0.22894287,0.765625,-3.28125,1.703125
1696296331118,-0.39526367,-0.9104614,0.19891357,3.09375,-1.890625,1.484375
1696296331165,-0.4086914,-0.93096924,0.19378662,-0.1875,-0.890625,0.40625
1696296331213,-0.38793945,-0.9048462,0.17645264,-1.515625,-1.78125,0.3125
1696296331239,-0.3564453,-0.9109497,0.19085693,-7.203125,1.890625,-2.25
1696296331285,-0.3959961,-0.91192627,0.22918701,-5.953125,1.671875,-4.265625
1696296331315,-0.41503906,-0.8596802,0.2531128,-4.859375,-1.28125,-1.203125
1696296331360,-0.39282227,-0.91534424,0.21063232,-4.0625,-2.71875,-4.5
1696296331408,-0.45703125,-0.8987427,0.28851318,-3.53125,4.390625,-3.34375
1696296331434,-0.4477539,-0.8726196,0.27044678,-3.28125,-0.765625,-0.953125
1696296331482,-0.41479492,-0.9014282,0.27313232,-0.09375,-0.34375,0.40625
1696296331526,-0.45092773,-0.8867798,0.2694702,1.109375,-3.171875,2.234375
1696296331554,-0.4111328,-0.9055786,0.24505615,2.6875,-1.8125,2.046875
1696296331601,-0.421875,-0.9048462,0.24798584,1.5,-1.921875,1.984375
1696296331629,-0.43237305,-0.9019165,0.25335693,3.140625,-2.984375,2.015625
1696296331678,-0.42138672,-0.894104,0.23846436,0.375,-3.15625,1.515625
1696296331721,-0.40722656,-0.8916626,0.23358154,3.140625,-3.890625,1.453125
1696296331749,-0.40698242,-0.9024048,0.21282959,-1.203125,-2.25,-0.21875
1696296331797,-0.44750977,-0.90167236,0.22723389,1.53125,-0.984375,1.140625
1696296331841,-0.40405273,-0.91534424,0.20965576,0.765625,1.796875,-0.015625
1696296331869,-0.3881836,-0.9006958,0.1984253,-0.5625,1.453125,-0.90625
1696296331916,-0.39624023,-0.9055786,0.20306396,-0.484375,-0.421875,-1.234375
1696296331945,-0.40405273,-0.911438,0.20770264,-2.375,0.390625,-1.703125
1696296331988,-0.41357422,-0.8987427,0.21820068,-2.453125,0.609375,-1.328125
1696296332021,-0.39111328,-0.8965454,0.20648193,-4.75,0.46875,-2.46875
1696296332066,-0.38745117,-0.89019775,0.21844482,-4.875,3.59375,-2.515625
1696296332109,-0.40795898,-0.88604736,0.24139404,-3.8125,-0.265625,-1.1875
1696296332140,-0.4465332,-0.90826416,0.26898193,-2.0,0.03125,-0.34375
1696296332184,-0.45581055,-0.89019775,0.27850342,-1.625,0.484375,0.34375
1696296332231,-0.41845703,-0.9121704,0.26019287,-2.015625,0.140625,1.875
1696296332261,-0.42871094,-0.8909302,0.28240967,1.40625,-1.203125,3.265625
1696296332304,-0.4128418,-0.9104614,0.230896,1.96875,-1.65625,3.515625
1696296332335,-0.42382812,-0.89678955,0.2579956,3.203125,-3.453125,4.0625
1696296332379,-0.40405273,-0.91656494,0.24261475,2.484375,-2.328125,3.078125
1696296332426,-0.40454102,-0.9011841,0.22528076,1.25,-4.296875,2.421875
1696296332454,-0.39794922,-0.90045166,0.23504639,1.328125,-4.875,1.203125
1696296332502,-0.4086914,-0.90875244,0.22772217,0.984375,-4.765625,0.96875
1696296332529,-0.40478516,-0.9060669,0.22479248,1.8125,-2.609375,1.125
1696296332576,-0.40527344,-0.90802,0.20648193,2.234375,-0.765625,1.890625
1696296332634,-0.39038086,-0.9085083,0.21038818,0.4375,-2.09375,1.625
1696296332649,-0.38867188,-0.9216919,0.19793701,-1.0,-1.515625,0.390625
1696296332695,-0.37304688,-0.9158325,0.1762085,-3.0625,0.171875,-1.859375
1696296332725,-0.39111328,-0.90631104,0.20697021,-6.171875,0.640625,-2.328125
1696296332771,-0.40185547,-0.9014282,0.25042725,-6.390625,3.640625,-3.640625
1696296332815,-0.42407227,-0.8723755,0.2584839,-5.90625,-2.953125,-2.90625
1696296332845,-0.41918945,-0.90997314,0.2694702,-3.984375,1.640625,-2.8125
1696296332890,-0.4248047,-0.9019165,0.24188232,-9.65625,2.640625,-5.78125
1696296332935,-0.4182129,-0.8687134,0.28631592,-3.640625,3.046875,-2.109375
1696296332966,-0.43530273,-0.87994385,0.27972412,-1.203125,3.5,-0.09375
1696296333009,-0.4248047,-0.8911743,0.29608154,0.859375,-0.375,1.546875
1696296333040,-0.43481445,-0.89630127,0.27337646,2.859375,-0.71875,1.859375
1696296333085,-0.41015625,-0.8982544,0.24407959,3.34375,-0.15625,1.734375
1696296333130,-0.42260742,-0.9146118,0.25994873,3.234375,0.09375,0.578125
1696296333160,-0.43139648,-0.89923096,0.25213623,2.28125,-0.53125,0.4375
1696296333205,-0.40771484,-0.913147,0.20697021,-1.59375,3.046875,-1.53125
1696296333233,-0.41455078,-0.9194946,0.23236084,-6.171875,6.234375,-0.6875
1696296333281,-0.42138672,-0.8723755,0.27215576,-3.0,1.578125,1.65625
1696296333325,-0.38720703,-0.87506104,0.27386475,0.921875,-0.265625,1.578125
1696296333354,-0.40405273,-0.89263916,0.2489624,1.421875,-4.375,1.875
1696296333402,-0.41601562,-0.8862915,0.2699585,4.421875,-3.453125,0.875
1696296333428,-0.39648438,-0.9085083,0.1918335,1.734375,-5.96875,0.359375
1696296333476,-0.40234375,-0.89727783,0.20184326,-1.0,-5.078125,-0.015625
1696296333519,-0.3671875,-0.89727783,0.23919678,-2.265625,-2.640625,-2.890625
1696296333564,-0.43652344,-0.90997314,0.26678467,-5.734375,-7.5,-1.796875
1696296333594,-0.43896484,-0.911438,0.23529053,-7.6875,-0.453125,-5.703125
1696296333639,-0.42578125,-0.89849854,0.30975342,-5.09375,1.515625,-4.953125
1696296333671,-0.46435547,-0.85235596,0.2765503,-3.296875,-2.375,-1.53125
1696296333715,-0.43408203,-0.8867798,0.29534912,-1.0,0.171875,-0.203125
1696296333745,-0.44189453,-0.87579346,0.2843628,2.296875,-0.390625,1.609375
1696296333791,-0.4362793,-0.8858032,0.27874756,3.390625,-1.296875,2.109375
1696296333834,-0.43579102,-0.9067993,0.25408936,2.8125,-0.03125,2.125
1696296333866,-0.4248047,-0.8965454,0.25164795,3.21875,0.234375,2.34375
1696296333909,-0.4248047,-0.89556885,0.25628662,1.90625,-1.84375,2.828125
1696296333940,-0.4169922,-0.8999634,0.23480225,1.953125,-0.75,0.828125
1696296333986,-0.40966797,-0.9019165,0.23236084,1.9375,2.171875,-0.09375
1696296334029,-0.4255371,-0.88165283,0.2579956,-1.390625,-1.65625,0.5
1696296334059,-0.41503906,-0.8928833,0.24090576,1.609375,-0.203125,1.09375
1696296334105,-0.40356445,-0.90216064,0.2218628,-1.328125,-0.890625,-0.203125
1696296334151,-0.38183594,-0.895813,0.19256592,-2.1875,-3.15625,-0.046875
1696296334182,-0.41796875,-0.8960571,0.22332764,-2.8125,-2.609375,-0.4375
1696296334228,-0.40405273,-0.8821411,0.25628662,-2.03125,0.328125,-2.703125
1696296334255,-0.42529297,-0.8699341,0.23187256,-4.25,-4.53125,1.546875
1696296334300,-0.4104004,-0.9512329,0.2333374,-4.125,-0.796875,-3.21875
1696296334345,-0.4296875,-0.90948486,0.27508545,-4.28125,4.390625,-3.921875
1696296334380,-0.42236328,-0.8735962,0.28094482,-4.328125,-1.5,-1.984375
1696296334420,-0.44604492,-0.8706665,0.28533936,-2.609375,0.46875,-0.71875
1696296334452,-0.44702148,-0.8723755,0.3085327,1.203125,-2.71875,1.515625
1696296334496,-0.45043945,-0.88848877,0.28704834,3.1875,-2.75,2.46875
1696296334540,-0.4272461,-0.89263916,0.27386475,5.78125,-0.25,2.6875
1696296334586,-0.4345703,-0.892395,0.26409912,3.578125,-2.4375,3.09375
1696296334614,-0.42651367,-0.9048462,0.2538452,4.5625,-0.4375,4.03125
1696296334646,-0.41357422,-0.87872314,0.22161865,2.765625,-1.203125,2.890625
1696296334691,-0.41357422,-0.90411377,0.2423706,1.5625,-2.59375,2.21875
1696296334734,-0.4111328,-0.90460205,0.22943115,2.671875,-3.1875,2.078125
1696296334765,-0.41235352,-0.89508057,0.21966553,1.484375,-3.0,1.921875
1696296334811,-0.40625,-0.9014282,0.20526123,2.4375,-2.640625,1.703125
1696296334892,-0.38745117,-0.9092407,0.19378662,1.140625,-3.296875,0.671875
1696296334895,-0.37548828,-0.90631104,0.16912842,-4.421875,-3.203125,-0.515625
1696296334929,-0.4025879,-0.927063,0.22357178,-5.75,-1.015625,-2.375
1696296334959,-0.39941406,-0.88067627,0.21600342,-4.484375,-2.765625,-0.78125
1696296335005,-0.42529297,-0.9072876,0.2736206,-3.1875,-2.90625,-1.484375
1696296335051,-0.41748047,-0.9319458,0.18597412,-10.359375,-0.625,-6.140625
1696296335079,-0.40161133,-0.8960571,0.2243042,-5.828125,2.96875,-4.875
1696296335126,-0.43676758,-0.8699341,0.276062,-5.265625,1.78125,-3.84375
1696296335154,-0.47436523,-0.8731079,0.29193115,-3.046875,-0.53125,-0.9375
1696296335201,-0.43017578,-0.8880005,0.27825928,2.390625,-0.421875,1.28125
1696296335245,-0.44189453,-0.8921509,0.25628662,4.015625,0.4375,2.25
1696296335276,-0.4296875,-0.89385986,0.26678467,4.828125,-0.09375,3.265625
1696296335321,-0.43652344,-0.9085083,0.25335693,6.90625,-0.5,4.203125
1696296335350,-0.39746094,-0.8892212,0.21063232,3.40625,-0.671875,2.40625
1696296335399,-0.42211914,-0.9014282,0.24139404,1.671875,-2.96875,1.921875
1696296335441,-0.43017578,-0.895813,0.22381592,1.9375,-2.21875,1.359375
1696296335470,-0.3942871,-0.89971924,0.19598389,2.265625,1.390625,0.203125
1696296335517,-0.4111328,-0.8989868,0.19622803,0.734375,-4.796875,0.40625
1696296335592,-0.4074707,-0.9104614,0.17449951,-0.453125,-1.09375,0.421875
1696296335597,-0.390625,-0.9194946,0.17376709,-1.96875,-0.34375,-0.4375
1696296335635,-0.40625,-0.8977661,0.21234131,-2.78125,2.21875,-2.921875
1696296335664,-0.3894043,-0.8845825,0.21917725,-3.984375,-0.34375,-0.640625
1696296335716,-0.41845703,-0.94122314,0.22845459,-8.125,0.40625,-4.921875
1696296335754,-0.42163086,-0.8858032,0.26116943,-6.890625,2.171875,-4.953125
1696296335784,-0.41796875,-0.8850708,0.25408936,-5.34375,0.359375,-4.09375
1696296335832,-0.46606445,-0.87164307,0.27508545,-3.28125,-1.09375,-1.5
1696296335859,-0.46484375,-0.87506104,0.32073975,0.15625,-2.765625,1.203125
1696296335908,-0.45336914,-0.8843384,0.26605225,7.75,-0.875,3.921875
1696296335949,-0.43164062,-0.8948364,0.25238037,5.84375,-1.609375,5.40625
1696296335981,-0.39624023,-0.9011841,0.22406006,-0.03125,-2.890625,3.375
1696296336028,-0.421875,-0.89678955,0.24676514,0.921875,-4.765625,3.375
1696296336054,-0.41235352,-0.8862915,0.25091553,2.375,-3.734375,2.09375
1696296336099,-0.42016602,-0.89727783,0.23773193,1.09375,-3.609375,2.484375
1696296336144,-0.41577148,-0.89678955,0.21209717,1.328125,-2.34375,1.625
1696296336176,-0.39282227,-0.9158325,0.19354248,-0.578125,-1.1875,0.28125
1696296336225,-0.40478516,-0.8982544,0.21453857,2.796875,-1.84375,1.390625
1696296336266,-0.39648438,-0.9314575,0.17791748,-1.0625,-2.28125,-0.203125
1696296336294,-0.38867188,-0.91656494,0.18011475,-3.921875,0.921875,-1.578125
1696296336340,-0.38793945,-0.8933716,0.19671631,-2.984375,3.15625,-2.6875
1696296336369,-0.41088867,-0.8858032,0.23944092,-7.359375,3.234375,-4.859375
1696296336420,-0.41479492,-0.8779907,0.23382568,-8.15625,0.890625,-5.171875
1696296336459,-0.42089844,-0.9089966,0.2723999,-4.90625,0.484375,-5.5625
1696296336489,-0.46777344,-0.86724854,0.2514038,-3.5625,3.09375,-3.53125
1696296336550,-0.44091797,-0.8831177,0.30413818,-1.765625,-0.25,-1.046875
1696296336564,-0.47070312,-0.88897705,0.2850952,0.078125,0.171875,0.78125
1696296336611,-0.4309082,-0.86920166,0.26971436,5.4375,0.25,2.015625
1696296336672,-0.4194336,-0.90093994,0.2423706,2.625,-1.1875,1.703125
1696296336684,-0.43432617,-0.90631104,0.23553467,2.5625,-0.21875,2.015625
1696296336732,-0.4321289,-0.89190674,0.2645874,4.0,-1.875,2.953125
1696296336792,-0.4440918,-0.895813,0.24383545,1.765625,-2.6875,3.15625
1696296336805,-0.41137695,-0.90045166,0.24334717,1.453125,-3.625,1.515625
1696296336849,-0.3972168,-0.91607666,0.20233154,1.921875,-3.21875,2.6875
1696296336880,-0.42211914,-0.909729,0.22259521,2.25,-1.953125,1.765625
1696296336925,-0.4020996,-0.90997314,0.19451904,3.171875,-0.390625,2.734375
1696296336971,-0.40942383,-0.9116821,0.19476318,-2.03125,-2.671875,0.578125
1696296336999,-0.38134766,-0.9031372,0.16107178,-1.078125,0.125,-0.671875
1696296337046,-0.3840332,-0.8982544,0.20404053,-2.6875,0.6875,-1.21875
1696296337120,-0.39819336,-0.8833618,0.25091553,-5.390625,-2.5625,-3.1875
1696296337123,-0.44555664,-0.8870239,0.23431396,-6.90625,-3.421875,-0.625
1696296337164,-0.41455078,-0.925354,0.23309326,-6.765625,0.515625,-4.328125
1696296337194,-0.45507812,-0.87384033,0.30145264,-4.375,-0.03125,-1.90625
1696296337257,-0.44848633,-0.90167236,0.27679443,-2.109375,-0.609375,-1.46875
1696296337272,-0.4375,-0.88604736,0.27923584,1.03125,-0.8125,1.375
1696296337315,-0.4255371,-0.8953247,0.24945068,3.25,-0.046875,1.9375
1696296337365,-0.44018555,-0.8945923,0.26800537,2.046875,-2.578125,2.953125
1696296337389,-0.42089844,-0.90167236,0.24676514,5.328125,-1.390625,3.375
1696296337452,-0.4050293,-0.90338135,0.2086792,1.828125,-3.046875,1.875
1696296337509,-0.42529297,-0.8933716,0.24432373,2.0625,-2.90625,2.71875
1696296337512,-0.4074707,-0.9038696,0.22235107,-0.359375,1.1875,1.109375
1696296337555,-0.38110352,-0.90948486,0.17718506,1.5,0.921875,0.796875
1696296337586,-0.4013672,-0.90045166,0.20477295,-0.921875,-3.453125,0.609375
1696296337631,-0.40942383,-0.90167236,0.21697998,-0.078125,0.71875,0.34375
1696296337677,-0.38891602,-0.90093994,0.19451904,-2.609375,-1.671875,-0.65625
1696296337704,-0.37451172,-0.89556885,0.16644287,-5.9375,-2.140625,-1.15625
1696296337749,-0.41577148,-0.90460205,0.2662964,-2.8125,1.09375,-1.765625
1696296337782,-0.40283203,-0.8726196,0.2074585,-7.0625,-5.21875,-2.125
1696296337826,-0.42578125,-0.93463135,0.2526245,-4.328125,-1.25,-3.234375
1696296337873,-0.4489746,-0.8858032,0.25994873,-5.90625,1.25,-2.9375
1696296337899,-0.43237305,-0.880188,0.2670288,-2.84375,-2.40625,-1.09375
1696296337947,-0.43798828,-0.8875122,0.27166748,-0.703125,-1.421875,-0.09375
1696296337975,-0.43017578,-0.88897705,0.2897339,2.203125,-4.203125,1.0625
1696296338019,-0.43701172,-0.9002075,0.25628662,6.1875,-0.390625,2.59375
1696296338066,-0.43798828,-0.909729,0.25897217,5.640625,-0.140625,2.875
1696296338095,-0.42895508,-0.90875244,0.23626709,3.484375,1.453125,3.375
1696296338141,-0.4033203,-0.89849854,0.22918701,-0.25,0.703125,1.140625
1696296338214,-0.40698242,-0.8831177,0.21624756,0.4375,0.59375,3.125
1696296338217,-0.4038086,-0.90460205,0.22943115,0.890625,-0.296875,1.125
1696296338261,-0.41333008,-0.9072876,0.2189331,1.953125,-0.375,1.6875
1696296338292,-0.39208984,-0.9024048,0.21258545,2.046875,-2.59375,1.109375
1696296338337,-0.39916992,-0.894104,0.20599365,1.453125,-3.203125,1.265625
1696296338379,-0.37475586,-0.91851807,0.16595459,-1.234375,-4.671875,1.21875
1696296338409,-0.3623047,-0.9043579,0.19256592,-2.921875,-2.765625,-0.28125
1696296338456,-0.40576172,-0.9138794,0.24407959,-4.359375,-4.921875,-0.65625
1696296338486,-0.4399414,-0.894104,0.2514038,-2.9375,-5.203125,-0.9375
1696296338531,-0.39453125,-0.9417114,0.20037842,-7.53125,-0.65625,-5.25
1696296338577,-0.43286133,-0.88848877,0.24993896,-6.140625,0.015625,-2.21875
1696296338604,-0.43359375,-0.88946533,0.27459717,-3.140625,-2.796875,-0.25
1696296338655,-0.45043945,-0.88848877,0.2555542,-2.484375,-0.125,1.171875
1696296338680,-0.44189453,-0.89263916,0.25994873,1.53125,-0.765625,1.65625
1696296338726,-0.41796875,-0.9067993,0.22625732,2.765625,1.71875,1.234375
1696296338770,-0.42138672,-0.909729,0.24603271,3.84375,1.9375,0.859375
1696296338800,-0.421875,-0.9038696,0.23822021,5.21875,1.328125,1.890625
1696296338845,-0.40600586,-0.90582275,0.22137451,1.109375,0.125,-0.1875
1696296338891,-0.3984375,-0.90460205,0.22723389,3.265625,1.03125,0.296875
1696296338920,-0.41723633,-0.9065552,0.22576904,1.40625,-4.015625,1.015625
1696296338967,-0.40161133,-0.90631104,0.19525146,1.109375,-1.890625,-0.296875
1696296338995,-0.41918945,-0.923645,0.19232178,2.65625,-0.234375,1.15625
1696296339041,-0.38354492,-0.8945923,0.17132568,0.28125,-1.3125,0.390625
1696296339085,-0.39746094,-0.9038696,0.17669678,-1.15625,-1.734375,-0.015625
1696296339115,-0.38305664,-0.9024048,0.15423584,-9.75,-1.21875,-2.578125
1696296339161,-0.41552734,-0.9151001,0.24066162,-4.09375,0.703125,-3.640625
1696296339190,-0.42749023,-0.88360596,0.23187256,-5.46875,-4.9375,-0.65625
1696296339237,-0.42333984,-0.90753174,0.24456787,-2.640625,-0.078125,-3.78125
1696296339279,-0.43237305,-0.911438,0.23260498,-1.453125,1.296875,-1.96875
1696296339309,-0.44970703,-0.88848877,0.25579834,-1.5,0.09375,-0.375
1696296339356,-0.42333984,-0.89190674,0.2753296,1.15625,0.40625,-0.34375
1696296339402,-0.44628906,-0.89263916,0.25164795,3.375,1.140625,1.609375
1696296339430,-0.4248047,-0.9026489,0.22503662,4.109375,1.703125,1.609375
1696296339480,-0.41479492,-0.91241455,0.23626709,2.765625,1.828125,0.921875
1696296339504,-0.41430664,-0.9204712,0.21575928,-0.09375,1.640625,-0.203125
1696296339553,-0.4013672,-0.897522,0.22406006,1.078125,-1.875,0.21875
1696296339594,-0.41796875,-0.90045166,0.23382568,-1.515625,-2.640625,-0.984375
1696296339625,-0.4260254,-0.9067993,0.23724365,1.140625,0.0625,0.46875
1696296339671,-0.41723633,-0.8970337,0.19818115,0.65625,-1.28125,0.609375
1696296339700,-0.4152832,-0.9048462,0.22747803,0.90625,-1.203125,0.953125
1696296339752,-0.42285156,-0.8948364,0.20111084,1.0625,-1.390625,0.71875
1696296339805,-0.40698242,-0.89019775,0.18450928,0.390625,-0.40625,0.203125
1696296339819,-0.40429688,-0.895813,0.17181396,-5.65625,-1.0625,0.21875
1696296339868,-0.390625,-0.881897,0.23895264,0.0625,-1.625,-4.390625
1696296339895,-0.43481445,-0.894104,0.20379639,-4.484375,0.546875,0.953125
1696296339942,-0.3955078,-0.9356079,0.23968506,-7.21875,-4.65625,-2.875
1696296339986,-0.4333496,-0.88360596,0.26385498,-2.203125,0.734375,-1.5625
1696296340014,-0.4711914,-0.8921509,0.24676514,-1.09375,-1.71875,-0.6875
1696296340063,-0.44213867,-0.8892212,0.27801514,1.46875,-0.46875,1.765625
1696296340105,-0.4411621,-0.88409424,0.25506592,1.59375,-1.296875,2.015625
1696296340134,-0.43310547,-0.91534424,0.22259521,3.46875,1.59375,2.015625
1696296340180,-0.40771484,-0.91119385,0.21624756,3.9375,-1.296875,1.5
1696296340209,-0.4411621,-0.9104614,0.24554443,4.375,1.59375,1.375
1696296340256,-0.42285156,-0.9036255,0.22796631,4.59375,-0.03125,2.28125
1696296340302,-0.4038086,-0.89434814,0.20501709,1.4375,-0.515625,0.28125
1696296340329,-0.40234375,-0.8880005,0.18011475,3.421875,-2.8125,0.90625
1696296340374,-0.4152832,-0.92315674,0.21160889,0.171875,-6.328125,-0.53125
1696296340406,-0.40039062,-0.89630127,0.19891357,3.640625,-1.0,1.28125
1696296340450,-0.40014648,-0.8982544,0.1762085,0.0,-3.421875,0.328125
1696296340494,-0.40527344,-0.9151001,0.16546631,-4.5625,-2.671875,-0.203125
1696296340525,-0.39208984,-0.90631104,0.18084717,-1.5,-1.59375,-0.515625
1696296340572,-0.39892578,-0.9006958,0.18939209,-7.4375,-1.203125,-1.84375
1696296340601,-0.4260254,-0.8977661,0.19647217,-6.953125,-0.6875,-1.859375
1696296340647,-0.42895508,-0.8909302,0.23284912,-3.859375,-3.03125,-2.0
1696296340689,-0.42749023,-0.909729,0.21990967,-4.234375,0.78125,-2.90625
1696296340720,-0.44873047,-0.88287354,0.24725342,-2.25,0.203125,-1.546875
1696296340766,-0.43432617,-0.9053345,0.25726318,-1.765625,-2.390625,0.03125
1696296340812,-0.44140625,-0.89508057,0.24407959,0.84375,-1.15625,-0.109375
1696296340838,-0.43798828,-0.9006958,0.22357178,0.84375,-1.265625,1.71875
1696296340887,-0.43237305,-0.9067993,0.24188232,3.09375,0.515625,1.6875
1696296340914,-0.43115234,-0.9104614,0.2140503,2.21875,0.453125,1.609375
1696296340960,-0.41552734,-0.8904419,0.21185303,2.71875,-1.25,2.359375
1696296341005,-0.41625977,-0.90509033,0.19769287,0.46875,-0.796875,1.015625
1696296341034,-0.42089844,-0.9077759,0.21551514,0.171875,0.09375,0.65625
1696296341082,-0.43139648,-0.91192627,0.20574951,0.3125,1.9375,1.03125
1696296341109,-0.40429688,-0.90338135,0.19281006,-0.734375,-0.15625,1.109375
1696296341156,-0.40356445,-0.8921509,0.21331787,1.4375,-0.65625,0.796875
1696296341201,-0.40405273,-0.9006958,0.18792725,1.578125,-2.203125,1.640625
1696296341231,-0.3942871,-0.90460205,0.14935303,-3.59375,-2.703125,0.453125
1696296341277,-0.3828125,-0.89263916,0.19500732,-5.828125,-4.65625,-0.296875
1696296341304,-0.40942383,-0.90704346,0.21673584,-5.515625,-1.609375,-1.359375
1696296341352,-0.43066406,-0.8880005,0.23480225,-1.625,-7.109375,1.46875
1696296341395,-0.4345703,-0.9451294,0.18426514,-3.890625,2.53125,-5.1875
1696296341424,-0.42407227,-0.8677368,0.25823975,-6.90625,-1.703125,-4.546875
1696296341470,-0.45776367,-0.8904419,0.23236084,-3.875,0.703125,-2.375
1696296341518,-0.4465332,-0.90338135,0.25775146,-2.265625,0.34375,-0.875
1696296341545,-0.4572754,-0.88287354,0.27313232,0.296875,-0.328125,1.0
1696296341590,-0.42749023,-0.8880005,0.2243042,1.453125,-0.0625,2.171875
1696296341619,-0.42236328,-0.91412354,0.22357178,2.234375,0.65625,1.9375
1696296341665,-0.42944336,-0.9043579,0.22918701,3.53125,1.53125,2.015625
1696296341709,-0.45117188,-0.8921509,0.2255249,2.390625,1.4375,2.671875
1696296341739,-0.42504883,-0.9246216,0.2020874,-0.328125,5.734375,-0.21875
1696296341784,-0.41625977,-0.878479,0.23944092,3.46875,4.09375,1.21875
1696296341814,-0.39941406,-0.8965454,0.22381592,3.015625,0.921875,0.625
1696296341859,-0.40307617,-0.8970337,0.21356201,2.59375,-0.34375,1.90625
1696296341904,-0.39038086,-0.8987427,0.22210693,1.265625,-5.171875,1.703125
1696296341934,-0.39648438,-0.90093994,0.18548584,-0.734375,-3.515625,0.78125
1696296341981,-0.3857422,-0.8921509,0.18499756,-5.28125,-5.8125,-0.609375
1696296342026,-0.4182129,-0.8948364,0.24700928,-6.28125,-6.171875,-1.28125
1696296342055,-0.42260742,-0.88897705,0.22601318,-1.359375,-7.34375,0.359375
1696296342101,-0.43554688,-0.9290161,0.18426514,-6.671875,-4.15625,-3.109375
1696296342131,-0.4140625,-0.9077759,0.24285889,-5.796875,-3.90625,-4.046875
1696296342174,-0.44189453,-0.88238525,0.22747803,-2.40625,1.21875,-1.453125
1696296342220,-0.44458008,-0.8833618,0.25994873,-1.015625,-0.625,0.3125
1696296342250,-0.4519043,-0.8970337,0.25408936,0.328125,-0.53125,1.265625
1696296342294,-0.42016602,-0.90509033,0.22381592,1.765625,0.375,1.390625
1696296342325,-0.42407227,-0.9060669,0.23114014,2.75,2.0625,0.703125
1696296342370,-0.43432617,-0.91290283,0.230896,3.421875,1.734375,1.6875
1696296342417,-0.42919922,-0.9019165,0.22503662,2.046875,4.125,0.296875
1696296342445,-0.40966797,-0.8909302,0.20721436,0.171875,1.140625,0.4375
1696296342490,-0.4086914,-0.8909302,0.23602295,0.1875,-1.484375,1.125
1696296342521,-0.40844727,-0.9024048,0.22332764,1.859375,0.609375,1.46875
1696296342565,-0.40698242,-0.9011841,0.2111206,2.53125,-0.6875,1.828125
1696296342610,-0.38793945,-0.8867798,0.18841553,0.234375,-4.34375,1.84375
1696296342640,-0.3942871,-0.89508057,0.19744873,-0.671875,-5.0625,0.6875
1696296342685,-0.3881836,-0.9014282,0.19915771,-2.328125,-5.25,-0.0625
1696296342735,-0.40844727,-0.8977661,0.17938232,-1.5625,-7.90625,2.578125
1696296342759,-0.40673828,-0.9246216,0.22869873,1.515625,-2.296875,0.765625
1696296342807,-0.42773438,-0.9241333,0.1762085,-6.828125,2.0625,-2.359375
1696296342849,-0.41967773,-0.90289307,0.20404053,-7.078125,0.5,-4.25
1696296342879,-0.43066406,-0.89508057,0.25628662,-6.9375,2.734375,-3.46875
1696296342925,-0.45141602,-0.8765259,0.2555542,-2.703125,-0.546875,-0.984375
1696296342955,-0.4519043,-0.91363525,0.27508545,-1.984375,-2.0,0.21875
1696296343000,-0.43701172,-0.8904419,0.24432373,0.390625,-0.5625,0.578125
1696296343029,-0.4284668,-0.89312744,0.24945068,4.796875,1.4375,2.046875
1696296343076,-0.4338379,-0.89971924,0.230896,3.890625,2.765625,1.75
1696296343120,-0.42041016,-0.9053345,0.22869873,3.84375,3.296875,1.296875
1696296343149,-0.40673828,-0.8999634,0.20697021,2.140625,2.65625,-0.078125
1696296343196,-0.4074707,-0.897522,0.21868896,0.828125,-0.921875,0.53125
1696296343225,-0.40844727,-0.9053345,0.22821045,0.09375,-2.703125,1.5625
1696296343271,-0.4038086,-0.9006958,0.20892334,0.484375,-2.46875,1.109375
1696296343315,-0.41381836,-0.89385986,0.19622803,0.953125,-4.015625,2.0
1696296343345,-0.39624023,-0.91241455,0.17156982,-1.96875,-4.3125,0.953125
1696296343393,-0.39868164,-0.8882446,0.18988037,-6.078125,-4.5,-0.53125
1696296343436,-0.41845703,-0.91485596,0.1906128,-5.78125,-4.90625,-0.921875
1696296343470,-0.39697266,-0.90411377,0.2584839,-7.515625,-6.953125,-3.046875
1696296343511,-0.43554688,-0.9002075,0.2399292,-2.25,-0.71875,-2.46875
1696296343540,-0.44091797,-0.92144775,0.2218628,-6.453125,-0.109375,-3.34375
1696296343587,-0.41357422,-0.89141846,0.2177124,-7.15625,0.5625,-3.0625
1696296343630,-0.42700195,-0.8792114,0.28045654,-2.5,0.796875,-1.359375
1696296343660,-0.4296875,-0.8989868,0.2506714,-3.328125,-1.578125,0.0
1696296343705,-0.4453125,-0.90093994,0.27459717,-0.28125,-2.796875,0.71875
1696296343736,-0.43920898,-0.88946533,0.26605225,2.875,-0.25,0.9375
1696296343780,-0.42749023,-0.9026489,0.23773193,3.984375,1.671875,1.8125
1696296343824,-0.42114258,-0.89678955,0.2387085,3.953125,1.328125,3.046875
1696296343854,-0.42895508,-0.9019165,0.23577881,1.734375,1.140625,1.609375
1696296343901,-0.42236328,-0.89190674,0.25457764,1.359375,1.71875,0.71875
1696296343929,-0.42285156,-0.8809204,0.25701904,2.1875,1.171875,1.6875
1696296343976,-0.40527344,-0.9002075,0.22576904,2.65625,3.046875,1.21875
1696296344020,-0.40185547,-0.9055786,0.21722412,0.734375,0.03125,1.3125
1696296344048,-0.4038086,-0.90411377,0.20233154,0.734375,-1.609375,1.125
1696296344097,-0.3876953,-0.88726807,0.17840576,-2.984375,-2.578125,0.015625
1696296344142,-0.40454102,-0.9053345,0.21038818,-5.203125,-1.59375,-2.515625
1696296344170,-0.40673828,-0.88238525,0.2218628,-7.6875,-2.65625,-1.953125
1696296344214,-0.44091797,-0.88116455,0.28167725,-3.78125,-5.859375,0.625
1696296344244,-0.4326172,-0.94732666,0.19818115,-10.3125,2.21875,-5.359375
1696296344291,-0.43823242,-0.86187744,0.28216553,-5.171875,-0.09375,-2.203125
1696296344337,-0.46875,-0.88775635,0.29852295,-2.46875,-0.53125,-0.546875
1696296344365,-0.4519043,-0.8855591,0.27801514,-1.046875,1.0625,-0.578125
1696296344409,-0.44311523,-0.8882446,0.2831421,2.046875,-0.453125,1.640625
