# Sensor type: Respeck
# Activity type: Standing
# Activity subtype: Singing
# Subject id: s2094833
# Notes: 
timestamp,accel_x,accel_y,accel_z,gyro_x,gyro_y,gyro_z
1696294622304,-0.23486328,-0.9780884,0.15765381,0.921875,-1.546875,0.328125
1696294622335,-0.22387695,-0.96417236,0.16400146,0.9375,-1.578125,0.203125
1696294622378,-0.2355957,-0.9663696,0.16326904,1.375,-0.890625,0.59375
1696294622425,-0.23413086,-0.9692993,0.15130615,-1.171875,-1.9375,0.171875
1696294622455,-0.234375,-0.9690552,0.16009521,0.421875,-1.6875,0.375
1696294622498,-0.23754883,-0.9690552,0.14715576,-0.546875,-0.84375,0.453125
1696294622545,-0.23535156,-0.96588135,0.14788818,-0.875,-1.578125,0.28125
1696294622574,-0.22705078,-0.9714966,0.15447998,-1.609375,-1.34375,-0.125
1696294622619,-0.23535156,-0.9627075,0.14202881,-2.03125,-0.84375,-0.015625
1696294622649,-0.23461914,-0.972229,0.16009521,-0.875,-1.953125,0.265625
1696294622698,-0.22509766,-0.9678345,0.16033936,-2.015625,-1.296875,-0.171875
1696294622739,-0.23242188,-0.9788208,0.15350342,-1.53125,-0.671875,-0.09375
1696294622770,-0.23120117,-0.9702759,0.16107178,-1.109375,-1.484375,0.25
1696294622814,-0.2331543,-0.96759033,0.16375732,-0.359375,-1.921875,0.625
1696294622845,-0.2319336,-0.97052,0.1605835,-0.78125,-2.15625,0.359375
1696294622890,-0.22314453,-0.9768677,0.15667725,-0.40625,-1.234375,0.515625
1696294622934,-0.23388672,-0.96832275,0.17181396,0.625,-0.359375,0.6875
1696294622963,-0.22851562,-0.9649048,0.16595459,1.09375,-0.359375,0.140625
1696294623009,-0.23266602,-0.9729614,0.1437378,-2.390625,-1.828125,-0.1875
1696294623039,-0.234375,-0.97198486,0.16107178,-0.09375,-1.90625,0.59375
1696294623085,-0.2290039,-0.97003174,0.15374756,-0.828125,-0.140625,0.1875
1696294623133,-0.22436523,-0.9702759,0.15960693,-0.78125,-0.984375,0.234375
1696294623162,-0.22924805,-0.97442627,0.15325928,-1.25,-1.5625,-0.15625
1696294623206,-0.22949219,-0.97003174,0.14959717,-1.203125,-1.3125,0.4375
1696294623234,-0.22192383,-0.9702759,0.16253662,0.34375,-0.375,-0.046875
1696294623279,-0.22998047,-0.9734497,0.15545654,-0.921875,-0.734375,0.421875
1696294623325,-0.22436523,-0.9680786,0.15789795,-0.890625,-0.421875,0.328125
1696294623355,-0.22998047,-0.9619751,0.1630249,-1.359375,-0.609375,0.359375
1696294623401,-0.23168945,-0.9783325,0.16351318,-0.984375,-0.359375,0.328125
1696294623444,-0.23852539,-0.9649048,0.16644287,-0.625,-0.4375,0.3125
1696294623475,-0.22949219,-0.97003174,0.16522217,-0.578125,-0.1875,0.21875
1696294623521,-0.22827148,-0.9668579,0.16986084,-1.859375,-0.4375,-0.421875
1696294623551,-0.23022461,-0.96539307,0.16888428,0.0,0.28125,0.03125
1696294623595,-0.22583008,-0.9649048,0.13934326,-1.890625,-2.296875,-0.109375
1696294623641,-0.23999023,-0.97369385,0.1515503,-0.234375,-1.859375,0.671875
1696294623669,-0.21948242,-0.9680786,0.15960693,-0.484375,-0.0625,0.390625
1696294623716,-0.22314453,-0.97076416,0.16326904,-0.640625,-0.28125,0.453125
1696294623746,-0.2241211,-0.9746704,0.16082764,-1.078125,-1.140625,0.5
1696294623790,-0.22241211,-0.97369385,0.1630249,-0.046875,0.125,0.484375
1696294623835,-0.22558594,-0.97247314,0.16668701,-0.25,0.015625,0.0
1696294623865,-0.22241211,-0.97198486,0.16156006,-0.46875,-0.765625,0.109375
1696294623913,-0.22680664,-0.96832275,0.15765381,-1.078125,-0.78125,0.125
1696294623972,-0.22265625,-0.97198486,0.16229248,-1.015625,-0.578125,-0.015625
1696294623986,-0.22314453,-0.96954346,0.168396,-0.703125,-0.375,0.1875
1696294624032,-0.22509766,-0.9717407,0.16546631,-0.765625,-0.171875,0.265625
1696294624060,-0.22338867,-0.97198486,0.16082764,-1.15625,-0.578125,0.1875
1696294624107,-0.2241211,-0.97125244,0.15740967,-1.375,-1.171875,0.265625
1696294624152,-0.22387695,-0.9717407,0.168396,-0.359375,-0.375,-0.0625
1696294624180,-0.22753906,-0.96588135,0.17034912,0.421875,-1.359375,0.421875
1696294624227,-0.22338867,-0.97125244,0.17132568,-1.328125,-1.796875,-0.390625
1696294624256,-0.21948242,-0.9685669,0.17596436,-0.265625,-1.609375,-0.921875
1696294624302,-0.24121094,-0.96759033,0.15765381,-0.671875,-1.53125,-0.0625
1696294624346,-0.21826172,-0.96051025,0.16326904,-0.984375,-1.53125,-0.390625
1696294624391,-0.2446289,-0.97076416,0.17034912,-1.125,-0.640625,-0.0625
1696294624419,-0.2241211,-0.9702759,0.14959717,-0.875,-0.328125,-0.484375
1696294624449,-0.23217773,-0.96710205,0.16571045,-0.859375,-0.75,-0.0625
1696294624496,-0.22875977,-0.9651489,0.17425537,-0.421875,0.78125,-0.546875
1696294624541,-0.2277832,-0.96954346,0.16912842,-0.4375,0.578125,0.109375
1696294624587,-0.23876953,-0.9714966,0.16668701,-0.109375,1.09375,0.25
1696294624615,-0.23657227,-0.9627075,0.16766357,-0.1875,2.078125,0.484375
1696294624663,-0.2253418,-0.9663696,0.16766357,0.125,2.84375,0.28125
1696294624690,-0.21826172,-0.9758911,0.1642456,-0.375,2.21875,0.03125
1696294624737,-0.2319336,-0.9734497,0.15301514,-2.40625,0.609375,0.515625
1696294624765,-0.20410156,-0.9668579,0.16107178,-1.15625,0.765625,1.0625
1696294624811,-0.21826172,-0.97125244,0.1749878,-1.484375,-2.703125,2.015625
1696294624857,-0.22583008,-0.97662354,0.18597412,-1.625,-1.28125,0.234375
1696294624903,-0.2133789,-0.9678345,0.17767334,-0.296875,-0.375,-0.6875
1696294624930,-0.23217773,-0.96295166,0.18011475,-1.171875,-1.515625,-0.90625
1696294624961,-0.22729492,-0.98028564,0.15667725,-1.828125,-4.296875,-0.65625
1696294625007,-0.2265625,-0.9649048,0.18719482,1.390625,-3.0,0.328125
1696294625050,-0.23461914,-0.96954346,0.17303467,0.453125,-2.90625,-1.0625
1696294625081,-0.22631836,-0.9644165,0.15863037,-0.71875,-2.390625,-0.421875
1696294625126,-0.2319336,-0.9780884,0.14593506,-0.375,-0.59375,-0.8125
1696294625155,-0.2319336,-0.96466064,0.15594482,0.28125,-0.546875,0.03125
1696294625202,-0.22631836,-0.9627075,0.16693115,0.25,-0.28125,0.234375
1696294625247,-0.22509766,-0.97320557,0.16326904,-0.609375,-0.734375,0.078125
1696294625275,-0.22509766,-0.9631958,0.15863037,-1.90625,-0.453125,-0.265625
1696294625322,-0.23876953,-0.9741821,0.16595459,-2.5,0.921875,-0.328125
1696294625364,-0.22192383,-0.9627075,0.1828003,-0.515625,-0.53125,1.09375
1696294625394,-0.22631836,-0.9656372,0.18914795,0.53125,-1.671875,1.46875
1696294625442,-0.22070312,-0.96539307,0.18060303,1.78125,-0.015625,0.9375
1696294625470,-0.23461914,-0.9783325,0.1642456,-1.28125,-3.890625,2.03125
1696294625517,-0.2265625,-0.975647,0.16375732,0.109375,-2.53125,1.984375
1696294625560,-0.21826172,-0.9734497,0.15716553,0.09375,-1.640625,1.4375
1696294625589,-0.21020508,-0.9734497,0.15814209,0.53125,-2.90625,1.328125
1696294625635,-0.21069336,-0.972229,0.15447998,-0.828125,-3.328125,0.65625
1696294625666,-0.22729492,-0.96832275,0.15081787,0.625,-0.890625,1.15625
1696294625709,-0.19824219,-0.9771118,0.16351318,1.671875,-0.84375,-0.078125
1696294625754,-0.20141602,-0.9768677,0.15106201,-0.546875,-2.3125,0.015625
1696294625784,-0.21069336,-0.9780884,0.14788818,0.015625,-2.03125,0.125
1696294625832,-0.21606445,-0.9680786,0.14764404,-0.640625,-2.34375,0.671875
1696294625873,-0.21875,-0.9780884,0.15032959,-0.71875,-1.9375,0.71875
1696294625906,-0.21972656,-0.96221924,0.15838623,-0.21875,-1.59375,0.53125
1696294625950,-0.24731445,-0.98687744,0.15960693,0.015625,0.375,0.484375
1696294625979,-0.2319336,-0.9673462,0.15081787,-0.265625,0.6875,1.8125
1696294626026,-0.19702148,-0.9729614,0.16571045,0.09375,3.390625,0.234375
1696294626069,-0.20092773,-0.97369385,0.16790771,-0.03125,1.921875,0.6875
1696294626100,-0.19824219,-0.9729614,0.14642334,-1.984375,-0.6875,0.5
1696294626144,-0.19677734,-0.9849243,0.16278076,-0.03125,-1.828125,-0.046875
1696294626174,-0.20605469,-0.9758911,0.15716553,0.375,-0.34375,0.171875
1696294626236,-0.21850586,-0.96832275,0.1473999,0.03125,-0.671875,-0.296875
1696294626264,-0.21142578,-0.97735596,0.15960693,0.21875,0.484375,-0.390625
1696294626294,-0.21875,-0.9793091,0.1515503,-0.25,1.28125,-0.3125
1696294626340,-0.19091797,-0.9697876,0.15789795,-0.296875,1.328125,-0.796875
1696294626370,-0.19482422,-0.97979736,0.14984131,-1.21875,-0.125,-1.28125
1696294626414,-0.20483398,-0.97979736,0.15765381,-1.03125,-0.875,-1.171875
1696294626458,-0.23144531,-0.97540283,0.14569092,-1.28125,-0.484375,-0.625
1696294626489,-0.22387695,-0.9661255,0.15594482,-0.875,0.359375,-0.65625
1696294626534,-0.22021484,-0.97076416,0.16033936,-1.125,0.234375,-0.984375
1696294626581,-0.22314453,-0.96881104,0.15374756,-0.921875,-0.0625,-1.0
1696294626610,-0.22387695,-0.9692993,0.15228271,-1.25,-1.0,-1.125
1696294626654,-0.22485352,-0.972229,0.15447998,-2.59375,-2.609375,-0.265625
1696294626684,-0.21875,-0.9819946,0.15692139,-1.09375,-2.078125,-0.75
1696294626733,-0.23828125,-0.9656372,0.15789795,-0.34375,-2.140625,0.3125
1696294626777,-0.23217773,-0.97247314,0.16546631,-0.5625,-1.125,-0.375
1696294626804,-0.2277832,-0.9692993,0.15838623,-0.578125,0.8125,-0.078125
1696294626851,-0.2277832,-0.96832275,0.16229248,-0.90625,-0.5,-0.09375
1696294626878,-0.21557617,-0.97052,0.1671753,-0.6875,-0.21875,0.171875
1696294626940,-0.23095703,-0.9651489,0.16400146,-0.671875,0.03125,-0.0625
1696294626968,-0.22485352,-0.9661255,0.16741943,-1.15625,-0.5,0.203125
1696294627000,-0.22290039,-0.973938,0.15838623,-1.34375,-1.09375,0.3125
1696294627045,-0.21582031,-0.97052,0.16741943,-1.265625,-0.671875,-0.125
1696294627076,-0.22485352,-0.97369385,0.15911865,-0.9375,-0.28125,0.296875
1696294627122,-0.2199707,-0.9710083,0.16033936,-1.015625,-0.640625,-0.03125
1696294627165,-0.21972656,-0.9663696,0.16229248,-0.9375,-0.390625,0.1875
1696294627195,-0.22387695,-0.9710083,0.16473389,-0.296875,-0.46875,0.015625
1696294627240,-0.2265625,-0.97247314,0.16766357,-0.234375,-0.71875,0.4375
1696294627284,-0.2253418,-0.97198486,0.16522217,-0.4375,-0.421875,0.578125
1696294627314,-0.21240234,-0.97076416,0.17572021,-0.59375,0.109375,-0.765625
1696294627360,-0.21826172,-0.95684814,0.16912842,-0.140625,0.15625,-0.34375
1696294627389,-0.23632812,-0.98028564,0.1552124,-2.734375,-1.75,-0.140625
1696294627434,-0.2175293,-0.97662354,0.16326904,-1.625,-1.125,-0.1875
1696294627479,-0.22583008,-0.9673462,0.16448975,-1.875,-0.28125,0.109375
1696294627509,-0.22509766,-0.96417236,0.15863037,-1.671875,-0.265625,-0.171875
1696294627554,-0.21142578,-0.9829712,0.16351318,-2.671875,0.46875,-0.203125
1696294627585,-0.21850586,-0.9673462,0.17181396,-0.59375,0.703125,-0.046875
1696294627645,-0.22583008,-0.97198486,0.18670654,-0.296875,0.578125,-0.125
1696294627675,-0.23266602,-0.9710083,0.18206787,-0.59375,-0.34375,0.46875
1696294627704,-0.22485352,-0.9680786,0.17425537,-0.90625,-0.875,0.359375
1696294627753,-0.22460938,-0.9741821,0.1749878,-1.390625,-0.875,0.140625
1696294627779,-0.23144531,-0.9697876,0.18304443,-1.640625,-0.96875,0.109375
1696294627825,-0.22338867,-0.973938,0.18548584,-0.84375,-0.28125,0.0
1696294627869,-0.22314453,-0.96710205,0.18011475,-1.125,-1.109375,0.265625
1696294627900,-0.22924805,-0.9692993,0.17645264,-0.828125,-0.9375,0.21875
1696294627945,-0.22143555,-0.96954346,0.17938232,-0.515625,-0.859375,0.046875
1696294627991,-0.21899414,-0.9746704,0.18499756,-0.453125,-0.796875,-0.5625
1696294628019,-0.21435547,-0.94903564,0.19818115,0.265625,0.40625,-1.140625
1696294628066,-0.24267578,-0.9702759,0.19769287,-2.828125,2.0625,-1.828125
1696294628094,-0.23535156,-0.9678345,0.19378662,-0.265625,2.5625,-1.328125
1696294628139,-0.23999023,-0.97320557,0.18353271,1.1875,0.546875,-0.65625
1696294628185,-0.22802734,-0.9649048,0.20013428,0.65625,0.765625,-0.921875
1696294628215,-0.23632812,-0.97247314,0.16473389,0.9375,1.640625,-0.8125
1696294628261,-0.21264648,-0.97369385,0.16253662,-1.078125,-1.28125,-0.921875
1696294628288,-0.23388672,-0.9614868,0.19207764,-0.625,-2.8125,-0.734375
1696294628335,-0.22729492,-0.96759033,0.17108154,-2.59375,-2.640625,-1.5625
1696294628381,-0.2421875,-0.9578247,0.1906128,-0.5,0.015625,-2.0
1696294628409,-0.24633789,-0.9639282,0.16815186,0.5625,-3.203125,-0.375
1696294628456,-0.24975586,-0.96221924,0.17547607,-0.21875,-2.03125,0.296875
1696294628517,-0.234375,-0.96417236,0.17034912,-0.734375,-0.921875,-0.09375
1696294628529,-0.2421875,-0.9639282,0.17694092,-1.625,-1.265625,-0.21875
1696294628576,-0.23339844,-0.96881104,0.17816162,-2.578125,-0.375,-0.625
1696294628604,-0.24902344,-0.9649048,0.19036865,-0.25,-0.90625,0.5625
1696294628652,-0.24609375,-0.9685669,0.20233154,0.75,-1.34375,0.53125
1696294628698,-0.2434082,-0.9678345,0.18865967,0.96875,-1.328125,0.421875
1696294628724,-0.23413086,-0.96881104,0.1774292,-1.109375,-2.53125,0.09375
1696294628785,-0.23095703,-0.9651489,0.17181396,0.3125,-2.125,0.515625
1696294628799,-0.24487305,-0.9678345,0.1828003,-0.40625,-1.65625,0.8125
1696294628845,-0.23828125,-0.96588135,0.17523193,0.09375,-2.171875,0.578125
1696294628891,-0.24267578,-0.9678345,0.16741943,-1.09375,-2.328125,0.1875
1696294628918,-0.23242188,-0.9714966,0.16864014,-0.4375,-1.984375,0.4375
1696294628964,-0.24047852,-0.9631958,0.17718506,0.171875,-1.421875,-0.125
1696294628994,-0.23217773,-0.9702759,0.16986084,-0.109375,-1.21875,0.140625
1696294629041,-0.2397461,-0.9663696,0.16668701,-0.140625,-0.890625,0.203125
1696294629100,-0.23339844,-0.97198486,0.17303467,-0.484375,-0.96875,0.15625
1696294629114,-0.23364258,-0.96661377,0.17034912,-0.53125,-0.859375,0.15625
1696294629159,-0.23803711,-0.96759033,0.17669678,0.0,-0.765625,0.296875
1696294629206,-0.24169922,-0.96710205,0.17156982,-0.375,-0.65625,0.234375
1696294629236,-0.24365234,-0.9619751,0.18231201,0.0625,-0.78125,0.46875
1696294629281,-0.23461914,-0.9673462,0.17156982,0.1875,-0.578125,-0.1875
1696294629308,-0.24316406,-0.9697876,0.18963623,1.265625,-0.140625,0.15625
1696294629369,-0.2446289,-0.9678345,0.16253662,-1.75,-2.140625,0.125
1696294629399,-0.24023438,-0.9690552,0.17401123,-0.625,-1.59375,0.203125
1696294629429,-0.23510742,-0.9614868,0.16473389,-0.84375,-0.03125,0.109375
1696294629475,-0.24023438,-0.96221924,0.16937256,-1.140625,-0.734375,0.046875
1696294629505,-0.23779297,-0.97125244,0.17132568,-0.421875,-0.734375,0.09375
1696294629554,-0.23657227,-0.9651489,0.17523193,0.90625,-0.328125,0.328125
1696294629612,-0.23632812,-0.9651489,0.1749878,0.296875,-0.296875,-0.296875
1696294629624,-0.23779297,-0.97369385,0.17425537,-0.1875,-0.71875,0.25
1696294629671,-0.24658203,-0.97052,0.16668701,-0.4375,-0.625,0.21875
1696294629715,-0.23852539,-0.96295166,0.16766357,-1.125,-0.921875,-0.046875
1696294629744,-0.23925781,-0.96710205,0.16766357,-0.734375,-0.921875,0.40625
1696294629793,-0.24121094,-0.9631958,0.17352295,-0.4375,-0.9375,0.109375
1696294629819,-0.23876953,-0.9758911,0.17425537,-0.140625,-1.140625,0.3125
1696294629872,-0.23803711,-0.95684814,0.16644287,-0.546875,-1.296875,0.265625
1696294629938,-0.23510742,-0.96881104,0.15667725,-1.796875,-1.953125,0.28125
1696294629940,-0.2319336,-0.95806885,0.16375732,-0.390625,-0.734375,0.453125
1696294629983,-0.24072266,-0.9763794,0.16595459,-1.96875,-2.109375,0.84375
1696294630013,-0.23925781,-0.9717407,0.16986084,-0.390625,-1.484375,0.5
1696294630059,-0.22753906,-0.9636841,0.17132568,-0.171875,0.84375,0.046875
1696294630121,-0.23120117,-0.96466064,0.16400146,-0.46875,-0.796875,0.421875
1696294630149,-0.22705078,-0.9751587,0.17156982,-0.203125,-0.84375,0.4375
1696294630180,-0.23706055,-0.9678345,0.1762085,0.578125,-0.125,0.296875
1696294630209,-0.24072266,-0.9656372,0.17132568,-0.046875,-1.25,0.1875
1696294630253,-0.23803711,-0.9663696,0.16619873,-1.84375,-3.890625,0.796875
1696294630300,-0.22338867,-0.9746704,0.1671753,-1.625,-2.328125,-0.421875
1696294630328,-0.22998047,-0.9663696,0.15985107,-1.859375,-1.3125,-0.125
1696294630375,-0.22973633,-0.9656372,0.16497803,-1.484375,-0.515625,-0.265625
1696294630404,-0.23291016,-0.9680786,0.16693115,-1.296875,-1.1875,0.03125
1696294630449,-0.2355957,-0.96881104,0.16156006,-0.484375,-1.5,0.484375
1696294630539,-0.2397461,-0.96832275,0.1708374,-0.375,-1.46875,-0.046875
1696294630541,-0.23168945,-0.9741821,0.16888428,-0.40625,-1.0,0.3125
1696294630584,-0.23486328,-0.97540283,0.16815186,0.359375,-0.4375,-0.046875
1696294630629,-0.22314453,-0.9644165,0.16937256,1.921875,-1.9375,0.6875
1696294630645,-0.24121094,-0.9678345,0.16888428,0.609375,-0.984375,0.671875
1696294630690,-0.22143555,-0.97369385,0.16888428,0.84375,-0.46875,0.9375
1696294630720,-0.24023438,-0.9668579,0.1696167,0.671875,-0.015625,1.0
1696294630767,-0.2265625,-0.96343994,0.16448975,-1.28125,-0.984375,0.46875
1696294630808,-0.22583008,-0.9793091,0.1515503,-4.796875,0.25,-0.5
1696294630840,-0.22387695,-0.9585571,0.16619873,-6.921875,-0.4375,-0.421875
1696294630886,-0.23803711,-0.9607544,0.19158936,-2.84375,0.234375,0.359375
1696294630914,-0.23022461,-0.96051025,0.19476318,-1.671875,0.28125,-0.25
1696294630961,-0.22485352,-0.9680786,0.18353271,-1.40625,-1.6875,0.1875
1696294631005,-0.23608398,-0.96343994,0.17962646,-0.75,-1.046875,-0.65625
1696294631035,-0.2368164,-0.97369385,0.18499756,-0.140625,-0.71875,-0.015625
1696294631096,-0.23657227,-0.96051025,0.18475342,-0.359375,-0.234375,-0.34375
1696294631156,-0.22460938,-0.9644165,0.17840576,-0.953125,-0.46875,0.0625
1696294631161,-0.22875977,-0.97247314,0.18060303,-1.296875,-0.75,-0.015625
1696294631199,-0.2241211,-0.9751587,0.17010498,-2.078125,-1.03125,0.1875
1696294631229,-0.22949219,-0.972229,0.18670654,-1.03125,-0.515625,0.078125
1696294631274,-0.23583984,-0.9673462,0.17108154,-1.8125,-2.125,0.578125
1696294631321,-0.24023438,-0.97857666,0.2033081,-0.765625,0.140625,-0.546875
1696294631351,-0.23803711,-0.96881104,0.20843506,-2.59375,2.734375,-0.6875
1696294631394,-0.2668457,-0.97052,0.21820068,-11.921875,3.484375,-1.25
1696294631424,-0.21191406,-0.9639282,0.24603271,-14.453125,2.921875,-3.265625
1696294631470,-0.22460938,-0.972229,0.24554443,-3.828125,-5.359375,-2.171875
1696294631515,-0.29516602,-0.93829346,0.2020874,-4.5625,-4.75,-2.015625
1696294631545,-0.22680664,-0.9573364,0.19354248,-3.625,1.390625,-1.03125
1696294631590,-0.26757812,-0.9529419,0.23260498,-0.0625,3.046875,0.53125
1696294631619,-0.24169922,-0.96051025,0.22503662,4.3125,2.484375,0.4375
1696294631665,-0.23364258,-0.9558716,0.21820068,2.375,-0.296875,0.109375
1696294631710,-0.22070312,-0.95391846,0.19866943,0.875,-1.9375,0.125
1696294631739,-0.2319336,-0.95684814,0.21038818,-0.140625,-1.234375,-0.390625
1696294631784,-0.23950195,-0.9624634,0.19451904,-1.953125,-0.4375,-1.140625
1696294631862,-0.23461914,-0.9663696,0.2333374,0.890625,-0.46875,-0.75
1696294631867,-0.26171875,-0.9451294,0.25408936,3.4375,-1.15625,0.640625
1696294631904,-0.25,-0.94488525,0.22772217,2.625,-5.890625,1.65625
1696294631934,-0.25024414,-0.96539307,0.20916748,1.53125,-4.984375,1.171875
1696294631979,-0.23144531,-0.9561157,0.21234131,3.015625,-3.65625,1.390625
1696294632026,-0.24072266,-0.96173096,0.20159912,1.328125,-1.765625,1.125
1696294632055,-0.2397461,-0.96710205,0.19012451,2.015625,-3.234375,0.859375
1696294632099,-0.23950195,-0.97052,0.18963623,0.828125,-4.3125,0.890625
1696294632131,-0.24072266,-0.9678345,0.17449951,2.8125,-4.59375,1.984375
1696294632173,-0.23779297,-0.9636841,0.18695068,3.953125,-2.9375,1.4375
1696294632219,-0.22998047,-0.97076416,0.17303467,2.359375,-2.21875,1.625
1696294632267,-0.23876953,-0.96588135,0.17034912,1.5625,-1.234375,0.609375
1696294632296,-0.23266602,-0.9649048,0.17596436,-0.046875,-0.96875,0.640625
1696294632324,-0.23925781,-0.97125244,0.1852417,0.03125,0.15625,0.375
1696294632370,-0.24145508,-0.9661255,0.17791748,-0.65625,0.671875,-0.171875
1696294632432,-0.24291992,-0.9663696,0.17181396,-0.46875,0.03125,-0.265625
1696294632444,-0.2434082,-0.96832275,0.18157959,-0.609375,-0.3125,0.203125
1696294632489,-0.23608398,-0.97076416,0.1828003,0.265625,0.609375,-0.40625
1696294632568,-0.23413086,-0.9612427,0.18914795,2.15625,0.8125,0.234375
1696294632571,-0.23388672,-0.9734497,0.15887451,-1.609375,-1.34375,-0.71875
1696294632611,-0.2355957,-0.9673462,0.1762085,-0.28125,-0.484375,-0.03125
1696294632639,-0.23706055,-0.96466064,0.17156982,-0.375,0.03125,-0.15625
1696294632686,-0.23950195,-0.9663696,0.17181396,-0.34375,-1.015625,0.171875
1696294632729,-0.23657227,-0.9685669,0.1720581,-1.0625,-0.65625,-0.3125
1696294632777,-0.24023438,-0.96759033,0.17376709,-0.734375,-1.703125,0.484375
1696294632805,-0.24438477,-0.97491455,0.17327881,0.140625,-0.296875,-0.015625
1696294632834,-0.2211914,-0.96881104,0.16741943,0.25,0.40625,-0.671875
1696294632880,-0.23535156,-0.9673462,0.17059326,-0.234375,0.921875,-0.5
1696294632925,-0.24121094,-0.9710083,0.17327881,-0.046875,-0.703125,0.140625
1696294632954,-0.24438477,-0.9702759,0.1671753,-0.4375,-0.375,-0.03125
1696294632998,-0.2331543,-0.9758911,0.16790771,0.109375,-0.65625,0.0
1696294633029,-0.23657227,-0.9697876,0.16766357,-0.828125,-1.078125,-0.0625
1696294633075,-0.24072266,-0.9690552,0.16546631,-0.0625,-0.265625,0.40625
1696294633122,-0.22851562,-0.97369385,0.17352295,0.65625,0.328125,-0.71875
1696294633164,-0.24560547,-0.9614868,0.17767334,1.75,0.203125,0.53125
1696294633194,-0.23999023,-0.96221924,0.16644287,-0.71875,-0.890625,-0.25
1696294633241,-0.23242188,-0.9673462,0.17059326,-0.046875,-0.296875,0.4375
1696294633269,-0.23022461,-0.97003174,0.16937256,-0.734375,-0.5,0.140625
1696294633316,-0.2319336,-0.9710083,0.1696167,-0.453125,-1.171875,0.40625
1696294633344,-0.2331543,-0.9751587,0.15570068,-1.390625,-1.375,0.078125
1696294633391,-0.23364258,-0.9661255,0.1605835,-1.140625,-1.46875,0.484375
1696294633437,-0.23071289,-0.972229,0.1605835,0.03125,-2.15625,0.421875
1696294633465,-0.24169922,-0.96832275,0.1671753,0.609375,-0.703125,0.703125
1696294633509,-0.22827148,-0.96343994,0.15765381,-0.09375,-0.703125,0.25
1696294633540,-0.23876953,-0.96759033,0.16204834,-0.53125,-0.796875,0.328125
1696294633585,-0.23876953,-0.9702759,0.168396,-0.84375,-0.734375,0.09375
1696294633629,-0.23071289,-0.9578247,0.16229248,-1.1875,-0.375,-0.015625
1696294633660,-0.23608398,-0.9673462,0.16595459,-1.375,-0.609375,0.15625
1696294633704,-0.24023438,-0.975647,0.17034912,-0.453125,-0.109375,-0.15625
1696294633749,-0.23364258,-0.9697876,0.16546631,-1.09375,0.171875,-0.390625
1696294633811,-0.23413086,-0.96173096,0.17938232,0.71875,0.046875,0.03125
1696294633825,-0.24438477,-0.9639282,0.16497803,-1.671875,-2.140625,0.125
1696294633855,-0.23999023,-0.97198486,0.17181396,-1.171875,-1.09375,-0.28125
1696294633917,-0.23730469,-0.9631958,0.16253662,-1.328125,-0.484375,0.03125
1696294633945,-0.23413086,-0.9692993,0.16937256,-0.625,-0.75,-0.046875
1696294633975,-0.23828125,-0.96295166,0.16278076,-0.421875,-0.484375,0.109375
1696294634020,-0.23120117,-0.9805298,0.16107178,-1.015625,-1.734375,0.671875
1696294634095,-0.23535156,-0.9612427,0.17376709,-0.09375,-0.421875,-0.03125
1696294634097,-0.23388672,-0.96661377,0.17913818,-0.40625,0.0,0.328125
1696294634139,-0.23291016,-0.9727173,0.17059326,-0.125,-0.25,0.578125
1696294634170,-0.23950195,-0.97320557,0.17034912,-0.875,-0.109375,0.171875
1696294634216,-0.23364258,-0.97442627,0.16619873,-0.703125,-0.265625,0.046875
1696294634244,-0.23510742,-0.95269775,0.1720581,-0.46875,-0.5,0.296875
1696294634289,-0.2409668,-0.9710083,0.17230225,-1.59375,-0.484375,-0.1875
1696294634334,-0.24121094,-0.97491455,0.1774292,-0.671875,0.59375,-0.1875
1696294634365,-0.23535156,-0.958313,0.15887451,-2.640625,-0.890625,-0.328125
1696294634427,-0.23291016,-0.9651489,0.18084717,-1.078125,0.015625,-0.375
1696294634485,-0.23730469,-0.96881104,0.15814209,-2.671875,-2.140625,0.140625
1696294634488,-0.23608398,-0.9692993,0.18450928,-2.703125,-1.09375,-0.703125
1696294634530,-0.2421875,-0.96710205,0.17376709,-3.484375,1.140625,-1.234375
1696294634559,-0.24169922,-0.96173096,0.18109131,-2.125,-0.859375,-0.703125
1696294634622,-0.23803711,-0.9456177,0.17352295,-3.578125,-1.296875,-1.046875
1696294634654,-0.22998047,-0.9541626,0.2008667,-4.71875,-2.46875,-0.421875
1696294634679,-0.2475586,-0.96661377,0.21063232,-1.75,-2.171875,0.46875
1696294634727,-0.24194336,-0.94976807,0.2033081,-6.59375,-2.0,-0.21875
1696294634754,-0.2590332,-0.9768677,0.18841553,0.5625,-2.015625,0.828125
1696294634800,-0.2524414,-0.9524536,0.21282959,3.515625,-4.4375,0.84375
1696294634845,-0.24487305,-0.9663696,0.17645264,5.421875,-2.75,1.640625
1696294634874,-0.23266602,-0.97491455,0.18670654,4.40625,-2.703125,1.484375
1696294634937,-0.23583984,-0.97003174,0.17401123,2.828125,-3.078125,0.890625
1696294634949,-0.22875977,-0.96661377,0.15789795,1.875,-0.640625,-0.171875
1696294634995,-0.2319336,-0.9619751,0.15472412,0.546875,-2.609375,0.46875
1696294635040,-0.2265625,-0.9702759,0.15960693,0.453125,-0.25,-0.703125
1696294635069,-0.23339844,-0.96466064,0.15570068,-2.53125,-0.40625,-0.703125
1696294635116,-0.23999023,-0.9783325,0.1774292,-3.5625,-0.375,-2.015625
1696294635159,-0.24291992,-0.958313,0.18426514,-1.0625,0.625,-0.640625
1696294635190,-0.2487793,-0.96173096,0.16986084,-0.6875,-0.234375,0.125
1696294635235,-0.24267578,-0.9627075,0.17547607,-0.296875,-0.828125,0.328125
1696294635264,-0.24243164,-0.9644165,0.17547607,-1.015625,-0.015625,-0.578125
1696294635310,-0.2397461,-0.96539307,0.1552124,-2.171875,-1.4375,-0.3125
1696294635355,-0.23999023,-0.96759033,0.16741943,-1.328125,-1.375,-0.0625
1696294635383,-0.24438477,-0.96661377,0.1762085,-0.421875,-0.0625,-0.234375
1696294635431,-0.24023438,-0.97491455,0.17352295,-0.625,-0.34375,-0.109375
1696294635460,-0.24536133,-0.9570923,0.17962646,-0.71875,-0.78125,-0.21875
1696294635505,-0.23535156,-0.9661255,0.1798706,-0.75,-1.0,-0.21875
1696294635549,-0.24389648,-0.9673462,0.18035889,-1.0625,-0.765625,-0.09375
1696294635582,-0.24072266,-0.9661255,0.16497803,-1.1875,-1.21875,-0.078125
1696294635625,-0.23632812,-0.9639282,0.16326904,-2.625,-1.359375,-0.203125
1696294635654,-0.25,-0.96343994,0.18621826,-0.03125,-0.296875,0.34375
1696294635699,-0.2475586,-0.9661255,0.17547607,-0.03125,-1.0,0.765625
1696294635748,-0.24584961,-0.96539307,0.1798706,-0.453125,-0.59375,-0.125
1696294635775,-0.23779297,-0.9644165,0.18304443,-0.15625,1.0625,-0.0625
1696294635820,-0.2487793,-0.96173096,0.17303467,-0.578125,-0.3125,0.296875
1696294635867,-0.24902344,-0.96661377,0.1828003,0.171875,-1.375,0.671875
1696294635894,-0.24780273,-0.9585571,0.18060303,0.390625,-0.5625,-0.015625
1696294635956,-0.24145508,-0.96295166,0.16937256,1.109375,-2.3125,0.78125
1696294635970,-0.24633789,-0.9639282,0.16888428,1.1875,-2.1875,1.3125
1696294636015,-0.24145508,-0.9697876,0.17425537,0.921875,-1.125,0.625
1696294636060,-0.234375,-0.9656372,0.16546631,1.046875,-1.171875,0.453125
1696294636088,-0.24365234,-0.95928955,0.15496826,0.609375,-1.6875,0.109375
1696294636134,-0.24414062,-0.9651489,0.15863037,0.390625,-0.546875,0.4375
1696294636166,-0.2409668,-0.9612427,0.1618042,-0.25,-0.40625,0.109375
1696294636210,-0.24072266,-0.9678345,0.1605835,-0.671875,-1.0,0.3125
1696294636270,-0.23657227,-0.96661377,0.15472412,-1.734375,-1.46875,0.375
1696294636284,-0.24267578,-0.9644165,0.17156982,-0.5,-0.875,0.640625
1696294636329,-0.24267578,-0.9668579,0.16351318,-1.5625,-1.15625,0.6875
1696294636375,-0.24243164,-0.97369385,0.17425537,-2.015625,-0.40625,-0.359375
1696294636403,-0.23413086,-0.9595337,0.17425537,-2.03125,0.6875,-0.6875
1696294636480,-0.24291992,-0.9636841,0.17156982,-2.703125,0.078125,-0.453125
1696294636483,-0.24511719,-0.9678345,0.17938232,-2.71875,0.328125,-0.734375
1696294636524,-0.23950195,-0.96295166,0.19281006,-3.578125,1.296875,-0.984375
1696294636572,-0.234375,-0.9644165,0.17352295,-4.515625,-0.09375,-1.484375
1696294636599,-0.24902344,-0.96343994,0.19378662,-4.890625,-1.703125,-0.421875
1696294636644,-0.23852539,-0.9602661,0.20062256,-7.234375,-1.703125,-1.546875
1696294636675,-0.25561523,-0.9636841,0.18841553,-7.296875,-2.609375,-0.59375
1696294636720,-0.23535156,-0.9692993,0.19281006,0.078125,-3.84375,0.671875
1696294636764,-0.2524414,-0.9553833,0.21087646,-0.453125,-3.265625,0.90625
1696294636794,-0.25756836,-0.9614868,0.19720459,-1.3125,-3.21875,0.828125
1696294636843,-0.24829102,-0.96881104,0.20184326,0.1875,-0.828125,1.140625
1696294636870,-0.23413086,-0.9663696,0.19451904,-0.484375,-2.453125,1.015625
1696294636915,-0.23779297,-0.96173096,0.21551514,3.09375,-1.65625,1.734375
1696294636961,-0.25561523,-0.9602661,0.20233154,3.625,-3.0,2.65625
1696294636989,-0.25170898,-0.97247314,0.18914795,1.796875,-2.859375,-0.203125
1696294637037,-0.22241211,-0.96588135,0.16644287,3.1875,-1.484375,0.875
1696294637080,-0.2331543,-0.96710205,0.17474365,0.640625,-2.734375,0.015625
1696294637111,-0.2253418,-0.9517212,0.16497803,-0.21875,-2.234375,0.296875
1696294637153,-0.2331543,-0.9644165,0.17425537,0.015625,-0.46875,-0.46875
1696294637185,-0.2368164,-0.9627075,0.15911865,-3.5,-0.328125,-1.640625
1696294637231,-0.24487305,-0.9678345,0.18450928,-2.796875,0.40625,-1.34375
1696294637291,-0.24291992,-0.96295166,0.18841553,-0.234375,0.625,-0.171875
1696294637304,-0.24609375,-0.96343994,0.1786499,-1.140625,-0.859375,0.421875
1696294637350,-0.25024414,-0.96295166,0.1774292,0.171875,-1.734375,0.5625
1696294637394,-0.24853516,-0.9702759,0.18328857,1.359375,-1.65625,1.09375
1696294637425,-0.23657227,-0.96173096,0.18548584,0.90625,-0.578125,0.453125
1696294637469,-0.24951172,-0.95880127,0.17840576,0.140625,-0.90625,0.671875
1696294637502,-0.23266602,-0.96173096,0.1618042,-1.65625,-1.515625,-0.515625
1696294637546,-0.23657227,-0.9663696,0.17572021,0.046875,-0.78125,-0.0625
1696294637591,-0.24389648,-0.9656372,0.15667725,-1.28125,-2.03125,0.296875
1696294637619,-0.25024414,-0.97735596,0.17254639,0.28125,-0.703125,0.171875
1696294637666,-0.22998047,-0.96343994,0.16790771,0.765625,0.9375,0.109375
1696294637694,-0.24267578,-0.9668579,0.17254639,-0.265625,0.3125,0.375
1696294637740,-0.24438477,-0.97003174,0.18109131,1.0625,-0.796875,0.421875
1696294637786,-0.24243164,-0.9685669,0.17767334,1.84375,-0.234375,0.28125
1696294637813,-0.23022461,-0.96759033,0.17132568,-0.34375,-0.484375,0.140625
1696294637861,-0.24511719,-0.97003174,0.1762085,0.421875,-1.703125,1.34375
1696294637891,-0.23168945,-0.9668579,0.16278076,-0.296875,-1.109375,0.09375
1696294637935,-0.24633789,-0.9607544,0.17181396,-0.546875,-1.296875,0.40625
1696294637994,-0.23657227,-0.96710205,0.16693115,-0.515625,-1.15625,0.140625
1696294638009,-0.24194336,-0.9661255,0.17010498,-0.296875,-0.09375,0.234375
1696294638056,-0.24072266,-0.96417236,0.17156982,-0.59375,-0.21875,0.078125
1696294638084,-0.2355957,-0.9710083,0.16546631,-0.3125,-0.328125,0.421875
1696294638130,-0.24121094,-0.96466064,0.17401123,-0.484375,0.296875,-0.296875
1696294638176,-0.23120117,-0.9624634,0.17449951,0.28125,0.65625,0.109375
1696294638206,-0.2446289,-0.96954346,0.15789795,-2.515625,-1.703125,0.046875
1696294638250,-0.2368164,-0.96343994,0.17303467,-1.609375,-0.9375,0.109375
1696294638284,-0.23461914,-0.96343994,0.16864014,-0.921875,0.3125,0.109375
1696294638324,-0.23388672,-0.9619751,0.17547607,-1.140625,0.0625,-0.15625
1696294638369,-0.23828125,-0.9685669,0.1696167,-0.6875,-1.078125,0.421875
1696294638399,-0.23925781,-0.9729614,0.1708374,0.640625,-0.5625,0.515625
1696294638445,-0.23779297,-0.9661255,0.17156982,0.453125,-0.25,-0.09375
1696294638489,-0.24291992,-0.9685669,0.1642456,-0.703125,-0.34375,0.078125
1696294638519,-0.23657227,-0.9685669,0.17156982,0.140625,-0.4375,0.078125
1696294638564,-0.22875977,-0.9636841,0.16619873,-0.390625,-0.828125,0.109375
1696294638594,-0.24609375,-0.97003174,0.16790771,-0.75,-0.390625,-0.078125
1696294638638,-0.23461914,-0.96710205,0.168396,-0.890625,-0.625,0.015625
1696294638684,-0.23608398,-0.9690552,0.16571045,-0.890625,-0.59375,0.125
1696294638714,-0.23803711,-0.97076416,0.17572021,-0.3125,0.015625,0.046875
1696294638759,-0.2331543,-0.96466064,0.18157959,-0.171875,0.75,-0.5
1696294638790,-0.23657227,-0.95806885,0.17889404,0.796875,1.015625,-0.078125
1696294638834,-0.23730469,-0.96954346,0.16351318,-2.15625,-0.9375,-0.484375
1696294638879,-0.24511719,-0.9631958,0.1828003,-1.6875,-0.5,-0.34375
1696294638909,-0.2397461,-0.9595337,0.1852417,-1.5,-0.203125,-0.71875
1696294638954,-0.23510742,-0.9612427,0.17449951,-1.28125,-0.8125,-0.484375
1696294638999,-0.2409668,-0.9714966,0.17401123,-1.78125,-0.8125,-0.296875
1696294639029,-0.23901367,-0.96759033,0.17279053,-1.234375,-0.984375,0.0
1696294639074,-0.24194336,-0.9678345,0.1798706,-1.15625,-0.53125,-0.328125
1696294639103,-0.25854492,-0.96051025,0.20892334,0.3125,-1.796875,0.890625
1696294639149,-0.24707031,-0.9714966,0.15545654,0.234375,-3.859375,0.390625
1696294639194,-0.21240234,-0.97491455,0.16986084,0.703125,-1.359375,-0.40625
1696294639224,-0.23583984,-0.9644165,0.16741943,-0.296875,-1.40625,-0.0625
1696294639270,-0.24487305,-0.95928955,0.18231201,-0.171875,-1.71875,-0.0625
1696294639300,-0.23950195,-0.96539307,0.16619873,-0.4375,-0.90625,-0.140625
1696294639344,-0.24536133,-0.9690552,0.17572021,1.078125,-0.140625,-0.046875
1696294639390,-0.23876953,-0.9751587,0.15838623,1.984375,-2.28125,0.578125
1696294639419,-0.2355957,-0.9507446,0.17547607,8.34375,0.171875,3.171875
1696294639464,-0.21801758,-0.9854126,0.078552246,0.71875,-1.34375,0.328125
1696294639493,-0.22875977,-0.97784424,0.14154053,1.921875,-1.328125,0.3125
1696294639540,-0.2331543,-0.9619751,0.12762451,-0.703125,-1.375,-0.25
1696294639584,-0.22558594,-0.9636841,0.1293335,-2.5,-1.4375,-0.828125
1696294639629,-0.23120117,-0.9734497,0.13031006,-5.5625,-0.828125,-1.875
1696294639659,-0.24169922,-0.97125244,0.16033936,-3.671875,0.15625,-2.0
1696294639705,-0.24951172,-0.95880127,0.17303467,-1.296875,-0.578125,-0.828125
1696294639734,-0.25732422,-0.9636841,0.1630249,-1.515625,-1.734375,0.640625
1696294639782,-0.25146484,-0.9780884,0.15301514,-1.265625,-0.796875,-0.09375
1696294639810,-0.24023438,-0.9692993,0.16766357,-1.25,-0.328125,0.15625
1696294639854,-0.24707031,-0.96417236,0.15838623,-1.140625,-0.515625,-0.03125
1696294639899,-0.25073242,-0.97198486,0.16229248,-1.4375,-0.890625,0.15625
1696294639944,-0.24951172,-0.9644165,0.16571045,-1.25,-0.40625,-0.140625
1696294639974,-0.24902344,-0.9656372,0.16400146,-0.71875,-0.25,-0.03125
1696294640003,-0.23364258,-0.9570923,0.15496826,-2.359375,-1.34375,-0.625
1696294640049,-0.24584961,-0.96954346,0.1618042,-0.703125,-0.5,0.53125
1696294640094,-0.24511719,-0.9639282,0.14544678,-2.546875,-3.046875,0.546875
1696294640123,-0.24243164,-0.9788208,0.17596436,-1.4375,-1.515625,0.234375
1696294640170,-0.2421875,-0.9661255,0.17327881,-0.46875,0.453125,0.328125
1696294640199,-0.24658203,-0.9619751,0.16766357,-1.21875,-0.265625,0.125
1696294640260,-0.24707031,-0.9661255,0.17523193,-1.125,-1.296875,0.328125
1696294640289,-0.2475586,-0.96710205,0.1774292,0.984375,0.5,0.5
1696294640319,-0.24951172,-0.9619751,0.1671753,0.140625,-0.375,-0.390625
1696294640364,-0.24365234,-0.9636841,0.15911865,-0.578125,-1.390625,0.65625
1696294640409,-0.23803711,-0.96466064,0.16082764,-0.140625,-0.0625,0.09375
1696294640438,-0.24047852,-0.9714966,0.16204834,-0.625,-0.625,0.046875
1696294640485,-0.23803711,-0.9661255,0.16546631,-0.25,-0.171875,-0.234375
1696294640515,-0.2446289,-0.96343994,0.16253662,-0.40625,-0.375,0.046875
1696294640559,-0.24169922,-0.96221924,0.16546631,-0.796875,-0.671875,-0.15625
1696294640604,-0.24926758,-0.96099854,0.16644287,-0.921875,-0.6875,0.109375
1696294640634,-0.23901367,-0.9714966,0.1605835,-2.296875,-1.4375,-0.125
1696294640679,-0.23901367,-0.9639282,0.1696167,-1.234375,-0.375,-0.03125
1696294640709,-0.24560547,-0.9692993,0.168396,-1.203125,-1.640625,0.59375
1696294640755,-0.25268555,-0.97442627,0.17840576,-0.734375,-1.015625,-0.46875
1696294640801,-0.24243164,-0.96759033,0.17010498,-0.578125,0.46875,-0.671875
1696294640829,-0.24169922,-0.9631958,0.15667725,-0.875,-1.359375,0.015625
1696294640874,-0.24414062,-0.972229,0.1630249,-0.34375,-0.78125,0.03125
1696294640919,-0.24511719,-0.9627075,0.17718506,-0.4375,-0.515625,-0.015625
1696294640949,-0.24389648,-0.9636841,0.1605835,-1.140625,-1.171875,0.0
1696294640995,-0.2524414,-0.96539307,0.16448975,-1.34375,-1.515625,0.53125
1696294641024,-0.2446289,-0.9692993,0.1762085,-1.015625,-0.90625,-0.21875
1696294641069,-0.24829102,-0.96417236,0.17669678,-1.140625,-0.78125,0.203125
1696294641114,-0.2529297,-0.95635986,0.17596436,-1.53125,0.234375,-0.1875
1696294641143,-0.23217773,-0.97247314,0.18084717,-2.78125,-0.0625,-0.578125
1696294641189,-0.2434082,-0.9678345,0.18963623,-2.265625,-1.671875,-0.328125
1696294641219,-0.25878906,-0.97442627,0.1786499,0.125,-4.0,-0.78125
1696294641266,-0.2487793,-0.95196533,0.18011475,1.265625,-3.671875,0.3125
1696294641309,-0.26831055,-0.9624634,0.16033936,-1.71875,-2.359375,-1.328125
1696294641338,-0.25170898,-0.9602661,0.1696167,0.625,-0.78125,-1.578125
1696294641384,-0.26342773,-0.96881104,0.15594482,-3.109375,-1.6875,-1.5
1696294641414,-0.23291016,-0.9607544,0.1630249,1.078125,-1.6875,-0.4375
1696294641459,-0.2409668,-0.9602661,0.16204834,-0.796875,-0.890625,-0.078125
1696294641504,-0.25268555,-0.95880127,0.15545654,-0.875,-0.46875,-0.40625
1696294641534,-0.24438477,-0.96051025,0.16278076,-1.015625,-0.859375,-0.234375
1696294641579,-0.26367188,-0.96173096,0.1605835,-2.078125,0.453125,-0.765625
1696294641624,-0.24951172,-0.9558716,0.17449951,-1.734375,1.0,-1.25
1696294641654,-0.25561523,-0.9602661,0.17889404,-0.1875,-0.421875,0.890625
1696294641699,-0.26538086,-0.97003174,0.1749878,0.328125,-0.5625,0.96875
1696294641729,-0.25561523,-0.9727173,0.15570068,-0.65625,-2.4375,1.28125
1696294641789,-0.2619629,-0.96832275,0.17034912,0.734375,-1.578125,1.296875
1696294641819,-0.24194336,-0.9570923,0.16156006,1.03125,-0.984375,1.625
1696294641849,-0.26416016,-0.9663696,0.18353271,1.125,-1.140625,2.109375
1696294641894,-0.25317383,-0.9690552,0.17572021,0.796875,-0.78125,1.40625
1696294641924,-0.24658203,-0.96466064,0.16473389,-1.03125,-1.515625,0.5625
1696294641969,-0.2355957,-0.95977783,0.168396,0.171875,-0.359375,0.015625
1696294642016,-0.26000977,-0.96759033,0.1552124,-1.734375,-2.171875,0.515625
1696294642045,-0.25097656,-0.96954346,0.16253662,-0.375,-1.640625,0.015625
1696294642104,-0.24633789,-0.9612427,0.16131592,0.0625,0.421875,0.171875
1696294642118,-0.24926758,-0.9651489,0.1618042,-0.578125,-0.5625,-0.015625
1696294642165,-0.24951172,-0.96539307,0.15740967,-0.53125,-0.8125,0.3125
1696294642209,-0.24829102,-0.9631958,0.17059326,1.0,0.015625,0.125
1696294642240,-0.2487793,-0.96832275,0.15814209,0.1875,-0.828125,-0.03125
1696294642315,-0.24902344,-0.9649048,0.14447021,0.296875,-1.9375,0.75
1696294642329,-0.25268555,-0.9692993,0.15447998,0.375,-1.359375,0.84375
1696294642374,-0.23950195,-0.9678345,0.14544678,0.59375,-1.6875,1.125
1696294642405,-0.24853516,-0.9651489,0.1630249,1.03125,-1.3125,1.21875
1696294642434,-0.24267578,-0.96466064,0.15496826,0.75,-1.296875,0.9375
1696294642482,-0.24658203,-0.9656372,0.15496826,0.46875,-1.640625,0.84375
1696294642527,-0.24487305,-0.97052,0.1515503,-0.25,-1.078125,0.015625
1696294642555,-0.23950195,-0.9741821,0.14251709,-2.21875,-1.390625,-0.34375
1696294642615,-0.23632812,-0.9663696,0.14935303,-0.234375,-0.859375,-0.046875
1696294642628,-0.23925781,-0.96832275,0.13934326,-0.703125,-0.703125,0.265625
1696294642674,-0.26000977,-0.96099854,0.1618042,-0.28125,-0.90625,0.65625
1696294642718,-0.23510742,-0.9788208,0.1461792,-0.046875,1.234375,-0.34375
1696294642749,-0.24438477,-0.96588135,0.14959717,-0.09375,-0.546875,0.265625
1696294642795,-0.23779297,-0.9649048,0.14227295,-0.890625,-0.34375,-0.140625
1696294642824,-0.24804688,-0.9656372,0.15350342,0.03125,-0.109375,0.25
1696294642869,-0.2397461,-0.96881104,0.15130615,0.0,-0.765625,0.046875
1696294642915,-0.24731445,-0.9692993,0.14398193,-0.015625,-1.078125,1.0
1696294642943,-0.23706055,-0.97857666,0.14056396,0.046875,-0.265625,-0.0625
1696294642989,-0.23583984,-0.96661377,0.14471436,-0.59375,-0.5,0.25
1696294643034,-0.2409668,-0.96710205,0.14691162,-0.78125,-0.734375,-0.140625
1696294643064,-0.24560547,-0.96954346,0.14422607,-0.78125,-0.9375,0.125
1696294643111,-0.23925781,-0.9668579,0.13470459,-0.75,-0.1875,0.140625
1696294643139,-0.24829102,-0.96661377,0.13885498,-0.515625,-0.671875,0.15625
1696294643199,-0.23608398,-0.973938,0.13641357,-1.34375,-0.59375,0.203125
1696294643238,-0.2421875,-0.97125244,0.14910889,-0.859375,0.234375,-0.09375
1696294643259,-0.2355957,-0.97320557,0.14202881,0.140625,-0.546875,0.234375
1696294643305,-0.24438477,-0.96710205,0.1486206,-1.046875,-0.3125,-0.265625
1696294643333,-0.23632812,-0.972229,0.15496826,-0.828125,0.34375,0.015625
1696294643381,-0.24536133,-0.96881104,0.14398193,-1.15625,-0.34375,-0.046875
1696294643425,-0.24560547,-0.9656372,0.15545654,-1.796875,-0.75,-0.28125
1696294643453,-0.24389648,-0.9673462,0.15008545,-1.921875,0.171875,0.0
1696294643499,-0.2409668,-0.9685669,0.15496826,-3.625,-0.34375,-0.171875
1696294643544,-0.23852539,-0.9585571,0.15789795,-4.984375,0.6875,-0.453125
1696294643574,-0.25683594,-0.9729614,0.17767334,-2.0,-0.03125,0.5
1696294643620,-0.24658203,-0.9636841,0.17547607,-2.09375,-0.4375,-0.28125
1696294643649,-0.24438477,-0.9578247,0.17767334,-4.8125,0.40625,-0.765625
1696294643696,-0.24609375,-0.9546509,0.19281006,-9.28125,-1.53125,-1.8125
1696294643740,-0.24560547,-0.9800415,0.17303467,-4.59375,0.828125,-0.84375
1696294643768,-0.23632812,-0.9602661,0.17840576,-1.234375,-1.796875,-0.328125
1696294643815,-0.24169922,-0.97076416,0.18304443,-2.0,-0.34375,0.109375
1696294643847,-0.23754883,-0.9824829,0.19989014,1.046875,1.75,-0.453125
1696294643889,-0.24536133,-0.95147705,0.18963623,1.671875,1.484375,1.1875
1696294643934,-0.25170898,-0.9595337,0.19769287,-0.96875,-1.453125,0.03125
1696294643964,-0.24584961,-0.95928955,0.21307373,-0.15625,-2.34375,0.8125
1696294644009,-0.25097656,-0.960022,0.18865967,-1.140625,-1.21875,-0.671875
1696294644039,-0.2565918,-0.9685669,0.19110107,1.421875,-1.609375,0.6875
1696294644084,-0.23583984,-0.9541626,0.1906128,0.171875,-3.296875,-0.03125
1696294644145,-0.2446289,-0.96099854,0.1720581,-0.5,-4.125,0.640625
1696294644158,-0.25219727,-0.9644165,0.17840576,1.171875,-3.59375,0.109375
1696294644205,-0.23730469,-0.9639282,0.16278076,1.328125,-2.15625,0.5
1696294644250,-0.24243164,-0.9573364,0.18475342,1.90625,-0.40625,0.109375
1696294644279,-0.24926758,-0.96051025,0.16400146,0.3125,-0.796875,-0.015625
1696294644324,-0.24389648,-0.9619751,0.16937256,0.53125,-0.421875,0.75
1696294644355,-0.23413086,-0.9619751,0.16693115,-0.75,-1.0,-0.03125
1696294644398,-0.24438477,-0.9656372,0.16107178,-2.078125,-0.140625,-0.765625
1696294644459,-0.24023438,-0.9661255,0.1671753,-2.8125,-0.828125,-0.3125
1696294644474,-0.25341797,-0.96417236,0.19818115,0.96875,-0.984375,1.03125
1696294644520,-0.25561523,-0.96343994,0.18084717,0.6875,-0.578125,0.984375
1696294644550,-0.24365234,-0.96881104,0.16912842,-1.59375,-2.1875,-0.265625
1696294644595,-0.23217773,-0.9595337,0.18255615,0.875,-0.015625,0.125
1696294644641,-0.24951172,-0.9624634,0.15740967,-0.484375,-1.078125,-0.140625
1696294644670,-0.24804688,-0.96661377,0.1762085,-0.53125,-2.140625,0.03125
1696294644714,-0.24511719,-0.95635986,0.18035889,-0.59375,-0.875,-0.34375
1696294644760,-0.24511719,-0.96417236,0.16351318,-0.671875,-1.90625,0.203125
1696294644788,-0.24072266,-0.9741821,0.15179443,-0.328125,-1.703125,0.0625
1696294644834,-0.24731445,-0.9661255,0.1630249,0.1875,-0.84375,0.5
1696294644865,-0.24536133,-0.9661255,0.16619873,0.46875,-0.84375,0.234375
1696294644909,-0.23535156,-0.9697876,0.16741943,0.125,-0.96875,0.109375
1696294644984,-0.2541504,-0.97369385,0.17010498,0.125,-0.734375,0.390625
1696294644987,-0.24267578,-0.96343994,0.16790771,0.53125,-0.9375,0.4375
1696294645029,-0.24682617,-0.96881104,0.16693115,0.1875,-0.734375,0.4375
1696294645074,-0.23925781,-0.9614868,0.16107178,-0.171875,-1.03125,-0.015625
1696294645105,-0.24072266,-0.9578247,0.16668701,1.296875,-0.734375,0.9375
1696294645150,-0.2524414,-0.96832275,0.14715576,-1.5,-2.28125,0.609375
1696294645180,-0.2487793,-0.9717407,0.15081787,-0.671875,-2.078125,0.890625
1696294645224,-0.23852539,-0.96881104,0.14837646,-0.40625,1.03125,0.234375
1696294645253,-0.23095703,-0.9661255,0.15447998,-0.71875,0.5625,0.625
1696294645299,-0.24365234,-0.9649048,0.16790771,-1.28125,0.1875,0.46875
1696294645343,-0.24145508,-0.9702759,0.18157959,0.9375,0.453125,0.671875
1696294645374,-0.23144531,-0.96343994,0.14642334,-0.21875,-0.25,0.0
1696294645419,-0.22949219,-0.9788208,0.15228271,-0.96875,-1.828125,0.671875
1696294645449,-0.23168945,-0.96954346,0.1437378,0.125,-1.375,0.65625
1696294645495,-0.24365234,-0.9685669,0.15252686,1.921875,-1.921875,1.171875
1696294645538,-0.24560547,-0.97369385,0.1552124,3.734375,-2.28125,1.359375
1696294645569,-0.23706055,-0.9710083,0.15228271,2.578125,-1.203125,0.625
1696294645630,-0.22607422,-0.97003174,0.13812256,0.8125,-1.03125,0.15625
1696294645659,-0.234375,-0.9697876,0.14691162,0.8125,-0.953125,0.390625
1696294645689,-0.22875977,-0.9741821,0.14447021,-0.765625,0.015625,-1.171875
1696294645735,-0.23486328,-0.9668579,0.14935303,-0.078125,0.75,-0.40625
1696294645764,-0.24194336,-0.9612427,0.13470459,-3.046875,-1.265625,-0.796875
1696294645809,-0.23632812,-0.973938,0.15228271,-1.671875,-0.703125,-0.546875
1696294645853,-0.24267578,-0.96588135,0.13787842,-1.453125,-0.359375,0.0
1696294645885,-0.2355957,-0.96881104,0.14813232,-0.921875,-0.296875,-0.390625
1696294645929,-0.24414062,-0.96417236,0.14691162,-1.203125,-0.484375,-0.046875
1696294645958,-0.234375,-0.9710083,0.14251709,-0.59375,-2.375,0.421875
1696294646003,-0.24584961,-0.97369385,0.15618896,-0.796875,-0.6875,0.0
1696294646050,-0.2319336,-0.97491455,0.14129639,-0.578125,0.359375,0.0625
1696294646095,-0.2421875,-0.9624634,0.1486206,-0.734375,-0.453125,0.125
1696294646124,-0.25097656,-0.97247314,0.15301514,-0.3125,-0.609375,0.046875
1696294646169,-0.23999023,-0.9602661,0.14764404,-0.890625,0.1875,-0.171875
1696294646201,-0.23901367,-0.96954346,0.15106201,-0.890625,-0.15625,-0.015625
1696294646244,-0.23876953,-0.9663696,0.15130615,-1.140625,-1.015625,-0.25
1696294646275,-0.23608398,-0.97491455,0.14105225,-1.921875,-1.71875,-0.015625
1696294646318,-0.23486328,-0.9661255,0.15106201,-0.28125,-0.875,0.03125
1696294646364,-0.24584961,-0.9751587,0.14666748,0.765625,-1.359375,0.3125
1696294646394,-0.2434082,-0.97125244,0.14959717,-0.3125,-0.15625,-0.65625
1696294646438,-0.23266602,-0.9690552,0.1515503,-0.4375,0.71875,-0.140625
1696294646469,-0.24145508,-0.9651489,0.1539917,-0.921875,-0.796875,0.078125
1696294646513,-0.24291992,-0.9636841,0.14886475,-1.328125,-0.609375,0.046875
1696294646574,-0.24414062,-0.9644165,0.16546631,-0.6875,-0.359375,-0.015625
1696294646589,-0.24536133,-0.9631958,0.15252686,-0.953125,-0.625,0.078125
1696294646633,-0.24780273,-0.97491455,0.14666748,-2.109375,-1.296875,0.578125
1696294646664,-0.23852539,-0.97198486,0.15350342,-1.4375,-0.4375,-0.234375
1696294646710,-0.24072266,-0.9710083,0.1564331,-2.484375,-0.3125,-0.078125
1696294646754,-0.2421875,-0.9680786,0.15863037,-5.0625,0.828125,-1.25
1696294646784,-0.2121582,-0.9627075,0.19573975,-6.59375,0.609375,-2.078125
1696294646829,-0.27270508,-0.95928955,0.18963623,-0.234375,-4.25,1.796875
1696294646906,-0.29516602,-0.97979736,0.1605835,3.421875,-1.171875,-0.0625
1696294646909,-0.20776367,-0.95880127,0.1515503,0.46875,-4.484375,0.390625
1696294646949,-0.25952148,-0.972229,0.15594482,2.375,-3.03125,1.265625
1696294646980,-0.22216797,-0.97857666,0.11517334,2.25,-2.765625,0.734375
1696294647023,-0.23461914,-0.9685669,0.15716553,1.46875,-2.140625,0.609375
1696294647072,-0.23706055,-0.9607544,0.14544678,0.25,-1.65625,-0.515625
1696294647100,-0.23608398,-0.9690552,0.14105225,-0.390625,-1.015625,-0.53125
1696294647150,-0.23730469,-0.97198486,0.14276123,-0.53125,-1.171875,0.03125
1696294647175,-0.23901367,-0.96954346,0.14886475,-1.28125,-0.078125,-0.4375
1696294647219,-0.24584961,-0.96466064,0.16400146,-1.390625,-1.15625,-0.234375
1696294647263,-0.24487305,-0.960022,0.14544678,-0.203125,-2.28125,0.953125
1696294647293,-0.24975586,-0.9668579,0.15228271,-0.671875,-1.3125,0.625
1696294647339,-0.24438477,-0.96954346,0.15350342,-0.1875,-0.375,0.390625
1696294647369,-0.24047852,-0.96954346,0.14837646,-0.171875,-0.296875,0.484375
1696294647414,-0.24023438,-0.97052,0.14788818,-0.078125,-0.40625,-0.078125
1696294647458,-0.23876953,-0.96881104,0.14593506,-0.28125,-0.921875,0.46875
1696294647490,-0.24316406,-0.97052,0.14813232,-0.3125,-1.078125,0.21875
1696294647534,-0.24682617,-0.9680786,0.152771,0.328125,-0.109375,0.21875
1696294647610,-0.2355957,-0.96221924,0.14959717,0.875,0.234375,0.0625
1696294647624,-0.24194336,-0.9714966,0.13201904,-2.296875,-2.109375,0.3125
1696294647653,-0.24243164,-0.97003174,0.14813232,-0.421875,-1.5,0.59375
1696294647683,-0.23657227,-0.9702759,0.14324951,-1.078125,0.265625,-0.078125
1696294647730,-0.24145508,-0.97003174,0.1473999,-0.734375,-0.96875,0.421875
1696294647773,-0.24682617,-0.9758911,0.1395874,-1.5625,-1.125,-0.28125
1696294647803,-0.2331543,-0.96954346,0.14691162,-0.671875,-1.1875,0.265625
1696294647848,-0.2421875,-0.96539307,0.14569092,0.328125,-1.03125,-0.171875
1696294647878,-0.24145508,-0.9714966,0.14788818,-0.203125,-0.578125,0.15625
1696294647941,-0.2421875,-0.97198486,0.14642334,-0.9375,-0.53125,-0.171875
1696294647969,-0.2397461,-0.9644165,0.14520264,-1.40625,-0.75,-0.0625
1696294647999,-0.24145508,-0.96881104,0.13323975,-2.109375,-0.671875,-0.640625
1696294648046,-0.2421875,-0.96661377,0.15106201,-2.03125,-0.46875,-0.4375
1696294648075,-0.24829102,-0.9678345,0.1605835,-1.78125,-0.34375,-0.15625
1696294648119,-0.24072266,-0.9690552,0.1486206,-2.765625,-1.25,-0.515625
1696294648164,-0.24267578,-0.96881104,0.16693115,-0.640625,-0.75,0.328125
1696294648195,-0.24291992,-0.972229,0.1383667,-1.828125,-2.1875,0.421875
1696294648254,-0.24682617,-0.9656372,0.15692139,-1.03125,-1.015625,0.09375
1696294648284,-0.23901367,-0.96588135,0.1605835,-0.4375,0.65625,-0.296875
1696294648313,-0.24291992,-0.96759033,0.15179443,-0.921875,-0.609375,0.046875
1696294648359,-0.2529297,-0.9690552,0.1618042,-0.421875,-0.421875,0.109375
1696294648389,-0.23901367,-0.97003174,0.16107178,0.78125,0.796875,-0.203125
1696294648434,-0.23657227,-0.95880127,0.14910889,-0.625,-0.0625,-0.28125
1696294648479,-0.24951172,-0.96221924,0.15911865,-0.328125,-0.65625,0.421875
1696294648510,-0.24389648,-0.97125244,0.15789795,-0.625,-0.53125,-0.15625
1696294648555,-0.24194336,-0.9644165,0.15765381,-0.984375,-0.890625,-0.09375
1696294648598,-0.24145508,-0.9668579,0.15447998,-0.796875,-0.8125,-0.15625
1696294648630,-0.24731445,-0.96221924,0.15570068,-0.796875,0.21875,-0.265625
1696294648673,-0.24780273,-0.97442627,0.13934326,-1.203125,0.5625,0.09375
1696294648705,-0.23413086,-0.9685669,0.16522217,-0.046875,-0.390625,0.328125
1696294648749,-0.24658203,-0.96710205,0.16522217,1.484375,0.34375,0.171875
1696294648794,-0.23901367,-0.9578247,0.16473389,2.484375,0.03125,0.546875
1696294648823,-0.24511719,-0.9553833,0.1564331,0.21875,-0.875,0.046875
1696294648868,-0.24023438,-0.97491455,0.15960693,0.578125,-0.5,0.109375
1696294648898,-0.2512207,-0.9697876,0.15081787,-0.828125,-0.53125,0.09375
1696294648944,-0.2487793,-0.9690552,0.1552124,-0.890625,-0.671875,0.296875
1696294648988,-0.2409668,-0.9692993,0.15008545,-1.34375,-0.59375,-0.265625
1696294649018,-0.24194336,-0.9680786,0.14349365,-1.53125,-1.546875,0.25
1696294649063,-0.24169922,-0.9702759,0.14910889,-0.515625,-1.15625,0.359375
1696294649139,-0.23706055,-0.9714966,0.14886475,-0.6875,-0.203125,0.0625
1696294649141,-0.24438477,-0.97076416,0.15301514,-0.40625,-0.359375,0.109375
1696294649184,-0.23706055,-0.96881104,0.15203857,-0.328125,-0.453125,0.03125
1696294649214,-0.24267578,-0.9734497,0.15838623,-0.421875,-0.484375,0.0625
1696294649259,-0.24560547,-0.9692993,0.14959717,-0.46875,-0.28125,0.265625
1696294649289,-0.2397461,-0.97052,0.15057373,-0.921875,-0.546875,-0.15625
1696294649335,-0.23901367,-0.9741821,0.13787842,-2.390625,-2.375,-0.0625
1696294649379,-0.24853516,-0.960022,0.16351318,-0.328125,-0.671875,0.328125
1696294649408,-0.24731445,-0.97247314,0.14422607,-1.03125,-2.40625,0.90625
1696294649454,-0.24951172,-0.97320557,0.15081787,-0.828125,-1.3125,0.0625
1696294649499,-0.2368164,-0.9656372,0.1539917,-0.703125,-0.125,0.109375
1696294649528,-0.24145508,-0.9727173,0.14300537,-0.203125,-0.4375,0.234375
1696294649575,-0.24926758,-0.9680786,0.15887451,-0.28125,-1.046875,0.46875
1696294649603,-0.24243164,-0.9595337,0.16766357,1.4375,-0.6875,0.765625
1696294649649,-0.2434082,-0.9668579,0.15228271,0.125,-0.671875,-0.078125
1696294649694,-0.24731445,-0.97320557,0.13983154,-0.6875,-1.25,0.546875
1696294649726,-0.23217773,-0.9680786,0.1449585,-0.921875,-0.59375,0.078125
1696294649785,-0.24145508,-0.96417236,0.1461792,-0.546875,-0.75,0.375
1696294649814,-0.23901367,-0.9829712,0.1486206,-1.046875,0.09375,-0.4375
1696294649843,-0.23925781,-0.9663696,0.14422607,-0.703125,-0.734375,0.125
1696294649889,-0.23535156,-0.97076416,0.15496826,-0.4375,-0.765625,0.046875
1696294649919,-0.25073242,-0.9710083,0.15692139,0.171875,-0.40625,0.65625
1696294649965,-0.23461914,-0.9656372,0.16253662,0.0625,0.5625,-0.203125
1696294649993,-0.24072266,-0.9585571,0.16033936,1.203125,0.375,0.328125
1696294650038,-0.24194336,-0.97540283,0.14813232,-1.28125,-0.796875,-0.25
1696294650084,-0.24682617,-0.97857666,0.14813232,-1.046875,-1.296875,0.125
1696294650115,-0.23608398,-0.9734497,0.14642334,-0.890625,-0.78125,-0.171875
1696294650160,-0.23706055,-0.96710205,0.15106201,-0.96875,-0.75,0.0625
1696294650204,-0.23461914,-0.97052,0.15032959,-1.03125,-0.765625,0.140625
1696294650233,-0.2421875,-0.98028564,0.14666748,-0.796875,-0.796875,0.65625
1696294650280,-0.23657227,-0.96588135,0.15545654,-0.34375,-0.859375,0.109375
1696294650309,-0.23730469,-0.96759033,0.16009521,-0.09375,-0.453125,0.59375
1696294650354,-0.23291016,-0.96881104,0.1552124,-0.6875,-0.921875,0.5625
1696294650399,-0.23779297,-0.97198486,0.14886475,-2.015625,-0.765625,0.40625
1696294650428,-0.23339844,-0.97320557,0.15179443,-1.53125,-0.71875,0.125
1696294650475,-0.23852539,-0.9651489,0.15789795,-1.15625,-0.390625,-0.046875
1696294650505,-0.23388672,-0.973938,0.15106201,-1.9375,-0.875,-0.203125
1696294650549,-0.23706055,-0.97540283,0.15203857,-1.625,-1.0625,-0.125
1696294650594,-0.23779297,-0.972229,0.16278076,-1.375,-0.09375,-0.671875
1696294650624,-0.24169922,-0.96759033,0.15887451,-0.921875,-0.8125,-0.21875
1696294650669,-0.23632812,-0.9690552,0.17645264,-1.921875,0.25,-1.0625
1696294650699,-0.24633789,-0.96588135,0.17156982,-1.140625,-0.109375,-0.609375
1696294650744,-0.24121094,-0.95440674,0.17181396,-3.21875,-1.78125,-0.953125
1696294650788,-0.25170898,-0.97198486,0.1642456,-2.78125,-2.796875,-0.609375
1696294650819,-0.2536621,-0.96343994,0.16571045,-2.15625,-2.1875,-0.25
1696294650863,-0.24926758,-0.96661377,0.16937256,-2.46875,-2.234375,-0.53125
1696294650908,-0.25024414,-0.9614868,0.15789795,-2.0,-2.71875,-0.09375
1696294650938,-0.24658203,-0.96466064,0.184021,0.15625,-2.171875,0.40625
1696294650984,-0.24414062,-0.95880127,0.16619873,-0.515625,-3.40625,0.515625
1696294651014,-0.24243164,-0.9685669,0.16253662,0.296875,-5.15625,1.125
1696294651059,-0.24951172,-0.9746704,0.15789795,1.765625,-6.046875,1.71875
1696294651106,-0.22973633,-0.9595337,0.15350342,1.40625,-3.265625,0.71875
1696294651135,-0.24145508,-0.9680786,0.14935303,-0.25,-3.203125,0.34375
1696294651180,-0.25097656,-0.96343994,0.15081787,0.265625,-4.046875,0.984375
1696294651209,-0.23388672,-0.9673462,0.14764404,0.984375,-2.90625,1.046875
1696294651256,-0.24780273,-0.9710083,0.1437378,1.03125,-1.65625,0.875
1696294651300,-0.24316406,-0.9729614,0.15228271,1.21875,-2.3125,-0.015625
1696294651345,-0.2397461,-0.95758057,0.15008545,1.109375,0.25,-0.125
1696294651375,-0.23852539,-0.9771118,0.13201904,0.5,-2.984375,-0.25
1696294651420,-0.22680664,-0.9656372,0.13079834,-0.59375,-1.46875,0.140625
1696294651450,-0.23535156,-0.954895,0.13031006,-2.1875,0.109375,-1.09375
1696294651497,-0.23730469,-0.975647,0.15325928,-4.53125,0.1875,-2.671875
1696294651525,-0.2548828,-0.9624634,0.14471436,-1.6875,-0.78125,0.0625
1696294651570,-0.2529297,-0.96539307,0.13763428,-1.46875,-0.640625,-0.109375
1696294651616,-0.24389648,-0.9644165,0.15032959,-1.375,-0.6875,-0.234375
1696294651646,-0.25024414,-0.96832275,0.15447998,0.125,-0.59375,-0.0625
1696294651690,-0.24658203,-0.97076416,0.152771,-0.53125,-0.390625,0.546875
1696294651719,-0.24609375,-0.9678345,0.16229248,-0.078125,-0.375,0.5
1696294651764,-0.24145508,-0.97052,0.14154053,-2.09375,-1.9375,-0.046875
1696294651827,-0.24414062,-0.95928955,0.15716553,0.359375,-0.796875,0.484375
1696294651838,-0.25341797,-0.97320557,0.14666748,1.328125,-1.421875,0.890625
1696294651884,-0.24829102,-0.9729614,0.15447998,0.03125,-1.171875,-0.40625
1696294651915,-0.23730469,-0.9590454,0.15032959,1.28125,0.0625,0.28125
1696294651962,-0.2529297,-0.97052,0.13201904,2.140625,-1.40625,1.03125
1696294652005,-0.23803711,-0.9644165,0.14056396,2.1875,-1.78125,0.921875
1696294652036,-0.24047852,-0.96954346,0.14300537,2.21875,-1.671875,0.734375
1696294652081,-0.2421875,-0.9627075,0.12640381,-0.046875,-2.09375,0.5625
1696294652126,-0.2397461,-0.97198486,0.124938965,1.28125,-1.671875,0.859375
1696294652156,-0.23461914,-0.96881104,0.13543701,0.015625,-0.53125,-0.09375
1696294652199,-0.24145508,-0.9717407,0.13079834,-0.640625,-0.515625,0.203125
1696294652229,-0.23901367,-0.9697876,0.13470459,-2.265625,-0.46875,-0.28125
1696294652274,-0.24560547,-0.9758911,0.12884521,-1.28125,-0.828125,0.0625
1696294652321,-0.24707031,-0.9661255,0.13372803,-0.703125,-1.046875,0.03125
1696294652350,-0.23779297,-0.9729614,0.12298584,-1.3125,-1.421875,0.40625
1696294652395,-0.23852539,-0.9734497,0.13494873,1.328125,-0.78125,0.421875
1696294652424,-0.24804688,-0.96661377,0.13641357,2.234375,-0.765625,1.234375
1696294652470,-0.2355957,-0.97491455,0.12640381,-0.265625,-1.171875,-0.03125
1696294652515,-0.24560547,-0.9727173,0.13739014,0.171875,-0.25,0.484375
1696294652560,-0.24169922,-0.9768677,0.120788574,-0.46875,-0.078125,0.34375
1696294652590,-0.23510742,-0.972229,0.12615967,-0.609375,-0.90625,0.28125
1696294652619,-0.23852539,-0.9685669,0.12982178,-0.71875,-0.203125,-0.203125
1696294652664,-0.24267578,-0.96881104,0.11907959,-0.9375,-1.328125,0.453125
1696294652709,-0.24072266,-0.97491455,0.121032715,-0.609375,-1.046875,0.28125
1696294652740,-0.23120117,-0.9758911,0.12615967,-0.578125,-0.03125,0.078125
1696294652785,-0.23706055,-0.9651489,0.13397217,-0.5625,-0.421875,0.171875
1696294652829,-0.24414062,-0.9758911,0.13079834,-0.90625,-0.8125,0.078125
1696294652859,-0.234375,-0.97442627,0.11785889,-1.09375,-0.859375,0.078125
1696294652906,-0.23828125,-0.9734497,0.1281128,-1.234375,-0.609375,-0.078125
1696294652934,-0.23876953,-0.9783325,0.124938965,-1.015625,-0.5625,0.234375
1696294652980,-0.23852539,-0.97320557,0.13812256,-0.890625,0.6875,-0.75
1696294653024,-0.2397461,-0.9714966,0.13763428,0.296875,0.875,-0.171875
1696294653056,-0.23999023,-0.9631958,0.1251831,-2.0,-1.390625,0.0
1696294653118,-0.24243164,-0.9685669,0.13763428,-0.296875,-0.34375,0.3125
1696294653129,-0.23876953,-0.9697876,0.12957764,-0.15625,-0.546875,0.359375
1696294653178,-0.23657227,-0.97442627,0.12860107,-1.140625,-0.671875,0.4375
1696294653218,-0.23950195,-0.9690552,0.13616943,-1.4375,-0.296875,-0.390625
1696294653249,-0.23291016,-0.97857666,0.13812256,0.078125,-1.40625,0.84375
1696294653296,-0.23266602,-0.9702759,0.12176514,0.921875,-0.875,0.3125
1696294653324,-0.24316406,-0.9685669,0.13616943,0.015625,-0.546875,0.203125
1696294653373,-0.24072266,-0.97442627,0.12249756,-0.671875,-0.59375,0.1875
1696294653414,-0.24121094,-0.97076416,0.12420654,-1.4375,-0.921875,0.125
1696294653445,-0.23876953,-0.9729614,0.1251831,-0.875,-0.75,-0.046875
1696294653491,-0.24414062,-0.9795532,0.13104248,-0.578125,-0.6875,0.375
1696294653535,-0.2446289,-0.9685669,0.13201904,-0.53125,-0.453125,0.296875
1696294653565,-0.2397461,-0.9668579,0.11395264,-2.96875,-1.265625,-0.078125
1696294653613,-0.23266602,-0.9741821,0.1317749,-1.5,0.140625,0.375
1696294653639,-0.23388672,-0.9795532,0.113464355,-2.171875,-2.09375,0.640625
1696294653685,-0.23486328,-0.9710083,0.13372803,-1.28125,-0.75,0.359375
1696294653731,-0.23535156,-0.975647,0.13470459,-0.828125,0.859375,0.359375
1696294653778,-0.23095703,-0.97320557,0.13275146,-0.609375,-0.578125,0.375
1696294653804,-0.2331543,-0.9717407,0.13275146,-0.28125,-0.234375,0.71875
1696294653836,-0.23144531,-0.97906494,0.1437378,1.359375,0.9375,0.46875
1696294653882,-0.22216797,-0.97198486,0.12860107,0.203125,0.125,-0.21875
1696294653924,-0.23657227,-0.9663696,0.14056396,-0.890625,-0.34375,0.328125
1696294653955,-0.23828125,-0.96832275,0.13201904,-0.765625,-0.15625,0.109375
1696294654003,-0.22924805,-0.97540283,0.13641357,-0.890625,-0.5625,0.28125
1696294654045,-0.22924805,-0.973938,0.13885498,-0.828125,-0.546875,0.015625
1696294654074,-0.23242188,-0.97052,0.13641357,-0.84375,-0.734375,-0.171875
1696294654120,-0.2368164,-0.9729614,0.14056396,-1.21875,-0.703125,-0.109375
1696294654149,-0.23071289,-0.97613525,0.13031006,-1.421875,-0.546875,-0.109375
1696294654211,-0.22436523,-0.97442627,0.15081787,-0.578125,0.21875,-0.625
1696294654239,-0.24804688,-0.9639282,0.16595459,-2.65625,1.140625,0.234375
1696294654270,-0.23730469,-0.97540283,0.13348389,-4.96875,0.546875,-2.3125
1696294654314,-0.24121094,-0.9668579,0.18792725,-4.0625,-0.828125,-0.234375
1696294654346,-0.24365234,-0.9663696,0.15765381,-7.921875,-1.71875,-2.078125
1696294654392,-0.2548828,-0.9524536,0.21014404,-11.15625,3.1875,-2.71875
1696294654436,-0.24633789,-0.99664307,0.13104248,-1.171875,-6.390625,1.046875
1696294654464,-0.26123047,-0.95318604,0.14935303,2.71875,-3.875,1.140625
1696294654510,-0.21044922,-0.97247314,0.15032959,-0.078125,-2.65625,0.359375
1696294654540,-0.2409668,-0.97735596,0.15838623,2.15625,-2.875,0.6875
1696294654586,-0.23535156,-0.95513916,0.14447021,1.03125,-0.484375,0.046875
1696294654632,-0.22338867,-0.9668579,0.14813232,-1.96875,-0.09375,-1.25
1696294654659,-0.24365234,-0.9780884,0.1828003,-1.0,1.296875,-0.734375
1696294654705,-0.25585938,-0.9585571,0.18231201,1.640625,-0.515625,0.984375
1696294654749,-0.24658203,-0.9602661,0.16497803,-0.125,-1.671875,0.828125
1696294654779,-0.23901367,-0.9729614,0.15350342,-1.40625,-2.484375,-0.015625
1696294654825,-0.23803711,-0.96759033,0.16497803,1.59375,-0.234375,0.484375
1696294654855,-0.24145508,-0.95880127,0.15325928,-0.0625,-3.53125,1.734375
1696294654901,-0.2421875,-0.9795532,0.15594482,0.71875,-2.71875,0.359375
1696294654945,-0.22827148,-0.96759033,0.14959717,2.21875,-1.40625,0.484375
1696294654976,-0.23046875,-0.96343994,0.14666748,0.3125,-1.28125,0.25
1696294655020,-0.23706055,-0.973938,0.15252686,0.78125,-1.515625,0.203125
1696294655049,-0.24853516,-0.9771118,0.15716553,2.265625,-0.46875,0.28125
1696294655109,-0.23657227,-0.9644165,0.15374756,2.328125,-0.640625,-1.234375
1696294655140,-0.23754883,-0.97320557,0.14202881,2.390625,-0.796875,-0.046875
1696294655169,-0.24072266,-0.972229,0.1317749,0.875,-0.390625,0.015625
1696294655217,-0.2397461,-0.97247314,0.14349365,0.15625,-1.03125,0.046875
1696294655244,-0.2446289,-0.96466064,0.1359253,-0.03125,-0.390625,0.3125
1696294655291,-0.24853516,-0.96417236,0.12835693,0.078125,-1.046875,0.171875
1696294655336,-0.24414062,-0.96759033,0.1359253,0.40625,-1.5,0.78125
1696294655365,-0.23168945,-0.9685669,0.11517334,-2.28125,-2.109375,-0.171875
1696294655412,-0.23852539,-0.9680786,0.13812256,-0.6875,-0.890625,0.375
1696294655455,-0.24243164,-0.97491455,0.12762451,-1.4375,-1.75,0.609375
1696294655485,-0.23925781,-0.97613525,0.1383667,-1.359375,-0.734375,-0.171875
1696294655546,-0.23217773,-0.9692993,0.13763428,-0.453125,0.59375,0.046875
1696294655560,-0.23925781,-0.97442627,0.12908936,-0.515625,-0.0625,0.0625
1696294655606,-0.2421875,-0.97076416,0.13885498,-0.75,-0.34375,0.21875
1696294655651,-0.2434082,-0.9685669,0.14276123,0.65625,0.078125,0.125
1696294655680,-0.2253418,-0.97320557,0.12542725,-0.5,-1.078125,-0.03125
1696294655726,-0.24121094,-0.9631958,0.1461792,-0.734375,-1.734375,0.984375
1696294655754,-0.2355957,-0.96417236,0.13372803,-0.328125,-0.546875,0.265625
1696294655801,-0.24023438,-0.97540283,0.14154053,0.9375,0.0,-0.140625
1696294655846,-0.23608398,-0.9644165,0.1449585,-0.5,-0.03125,-0.46875
1696294655874,-0.2397461,-0.96881104,0.12713623,-1.203125,-1.234375,-0.59375
1696294655919,-0.23657227,-0.9710083,0.12982178,-0.828125,-1.21875,-0.484375
1696294655965,-0.23828125,-0.97247314,0.12615967,-1.59375,-1.34375,-0.03125
1696294655994,-0.24145508,-0.9729614,0.13690186,-0.46875,-0.453125,-0.125
1696294656041,-0.23876953,-0.97320557,0.12640381,-0.546875,-0.1875,-0.265625
1696294656069,-0.24536133,-0.97491455,0.14398193,-1.078125,-0.421875,-0.390625
1696294656117,-0.24267578,-0.9661255,0.14910889,-0.078125,0.453125,-0.109375
1696294656162,-0.24365234,-0.97247314,0.1395874,-0.40625,-0.296875,0.140625
1696294656190,-0.24536133,-0.97369385,0.13031006,-0.59375,-0.5625,0.203125
1696294656236,-0.2512207,-0.9673462,0.13665771,-0.46875,0.34375,0.3125
1696294656264,-0.24194336,-0.96954346,0.13739014,-0.671875,-0.5625,0.09375
1696294656312,-0.24584961,-0.9697876,0.13201904,-1.046875,-0.9375,0.8125
1696294656357,-0.23803711,-0.97052,0.13031006,-0.046875,0.375,0.515625
1696294656386,-0.24072266,-0.97198486,0.12542725,-0.109375,-0.140625,0.40625
1696294656432,-0.22631836,-0.9727173,0.13031006,0.59375,0.640625,0.234375
1696294656459,-0.24682617,-0.9758911,0.14276123,0.359375,0.609375,0.328125
1696294656505,-0.23510742,-0.97613525,0.13763428,0.765625,0.609375,0.375
1696294656553,-0.24560547,-0.9678345,0.1437378,1.671875,1.046875,0.921875
1696294656579,-0.23754883,-0.9697876,0.13519287,0.875,0.8125,0.09375
1696294656625,-0.23388672,-0.9668579,0.13201904,1.65625,1.703125,0.484375
1696294656670,-0.23779297,-0.9661255,0.12347412,-1.09375,-0.75,0.109375
1696294656700,-0.22631836,-0.97247314,0.13739014,-0.703125,-0.71875,0.46875
1696294656747,-0.24194336,-0.96539307,0.1239624,0.546875,-1.203125,0.53125
1696294656775,-0.2319336,-0.96343994,0.12615967,0.828125,-2.25,0.359375
1696294656820,-0.234375,-0.9717407,0.11785889,0.96875,-0.59375,0.46875
1696294656866,-0.22949219,-0.9727173,0.10882568,0.125,-1.703125,1.046875
1696294656895,-0.23413086,-0.97320557,0.11517334,0.15625,-0.234375,0.734375
1696294656943,-0.22338867,-0.97857666,0.12640381,-0.015625,0.359375,0.359375
1696294656969,-0.23046875,-0.973938,0.121276855,-0.296875,0.109375,0.53125
1696294657015,-0.23510742,-0.9729614,0.1251831,-0.734375,-0.328125,0.15625
1696294657061,-0.23388672,-0.97662354,0.11248779,-0.65625,-0.1875,0.296875
1696294657090,-0.23364258,-0.9680786,0.12591553,-0.46875,-0.203125,0.390625
1696294657134,-0.22851562,-0.96661377,0.117126465,-0.34375,0.0,0.609375
1696294657164,-0.22485352,-0.97613525,0.11004639,-2.078125,-0.53125,0.578125
1696294657211,-0.21875,-0.96710205,0.13616943,-0.421875,0.890625,0.125
1696294657256,-0.24291992,-0.9727173,0.12445068,-1.546875,-1.140625,1.046875
1696294657284,-0.22485352,-0.9788208,0.13079834,-1.28125,-0.359375,0.015625
1696294657330,-0.2290039,-0.9690552,0.12738037,-0.6875,-0.421875,0.28125
1696294657373,-0.23510742,-0.9692993,0.12908936,-0.625,-0.234375,-0.078125
1696294657404,-0.22094727,-0.97857666,0.12640381,-0.703125,-0.296875,0.1875
1696294657451,-0.22827148,-0.97784424,0.12591553,0.484375,-0.15625,-0.171875
1696294657479,-0.2199707,-0.97442627,0.13031006,-0.03125,-0.25,0.140625
1696294657526,-0.22583008,-0.9768677,0.121032715,-0.296875,-0.421875,0.171875
1696294657570,-0.21923828,-0.97369385,0.12249756,-1.078125,-0.296875,-0.203125
1696294657600,-0.22827148,-0.97442627,0.11883545,-1.703125,-0.96875,-0.484375
1696294657646,-0.21728516,-0.9854126,0.12542725,-2.328125,-0.890625,-0.8125
1696294657674,-0.22607422,-0.9783325,0.1305542,-2.71875,-0.84375,-0.671875
1696294657719,-0.23217773,-0.9717407,0.13787842,-3.546875,-1.078125,-1.125
1696294657765,-0.23583984,-0.9788208,0.13787842,-5.84375,-1.015625,-1.28125
1696294657795,-0.23754883,-0.9776001,0.15350342,-5.546875,-1.3125,-2.203125
1696294657843,-0.23608398,-0.96954346,0.16278076,-5.46875,-0.390625,-1.34375
1696294657870,-0.24487305,-0.9558716,0.1642456,-7.15625,-1.671875,-1.90625
1696294657914,-0.24926758,-0.9631958,0.19232178,-7.46875,-1.859375,-1.984375
1696294657960,-0.23925781,-0.96343994,0.16644287,-8.765625,-1.09375,-2.171875
1696294657990,-0.23461914,-0.9524536,0.21942139,-7.328125,0.390625,-1.25
1696294658034,-0.2548828,-0.97052,0.1798706,-1.03125,-2.703125,0.8125
1696294658079,-0.2668457,-0.9644165,0.16229248,2.328125,-8.859375,2.078125
1696294658110,-0.21557617,-0.9710083,0.12762451,4.375,-5.84375,2.75
1696294658156,-0.23144531,-0.97198486,0.1642456,7.6875,-3.796875,4.125
1696294658185,-0.21166992,-0.97003174,0.12689209,3.796875,-3.046875,0.734375
1696294658230,-0.234375,-0.9727173,0.16229248,2.765625,-3.453125,0.765625
1696294658278,-0.23266602,-0.9614868,0.14398193,1.453125,-2.765625,0.15625
1696294658304,-0.23779297,-0.9668579,0.13348389,-1.484375,-1.140625,-0.828125
1696294658351,-0.23413086,-0.97369385,0.15228271,-2.078125,0.0625,-1.4375
1696294658380,-0.22875977,-0.96221924,0.16351318,-2.40625,-0.25,-1.609375
1696294658425,-0.24829102,-0.95562744,0.16815186,0.109375,0.5,-0.25
1696294658469,-0.25756836,-0.9783325,0.13690186,-3.609375,-1.96875,-0.203125
1696294658499,-0.24536133,-0.9734497,0.15545654,-1.703125,-1.0625,-0.046875
1696294658546,-0.2368164,-0.9644165,0.16131592,-0.296875,1.0,0.234375
1696294658589,-0.2397461,-0.96710205,0.15423584,-0.484375,-0.140625,0.15625
1696294658619,-0.24243164,-0.96832275,0.15423584,-1.78125,-0.828125,-0.171875
1696294658666,-0.24780273,-0.972229,0.16448975,0.03125,-0.03125,0.09375
1696294658694,-0.24804688,-0.9692993,0.16204834,-0.140625,-0.75,-0.46875
1696294658739,-0.23950195,-0.9697876,0.16522217,0.0,-0.578125,0.1875
1696294658785,-0.24536133,-0.97369385,0.152771,-1.484375,-1.0,-0.328125
1696294658814,-0.23657227,-0.9627075,0.14935303,-0.484375,-1.0,-0.109375
1696294658860,-0.23608398,-0.9627075,0.1564331,-1.109375,-0.65625,-0.390625
1696294658889,-0.25854492,-0.97198486,0.16351318,-0.25,-0.828125,0.46875
1696294658934,-0.24707031,-0.9639282,0.16815186,-0.03125,0.203125,0.09375
1696294658980,-0.2421875,-0.9602661,0.16082764,-1.390625,-0.421875,-0.578125
1696294659009,-0.24291992,-0.96173096,0.17059326,-0.34375,-0.546875,0.140625
1696294659056,-0.25268555,-0.9636841,0.15374756,-2.515625,-1.921875,0.125
1696294659084,-0.24560547,-0.9727173,0.1642456,-1.328125,-1.21875,-0.21875
1696294659131,-0.2421875,-0.95977783,0.1618042,-0.46875,-0.140625,-0.03125
1696294659173,-0.24121094,-0.96295166,0.16644287,-0.359375,0.25,-0.15625
1696294659204,-0.24291992,-0.9656372,0.1552124,-0.640625,-0.40625,0.09375
1696294659250,-0.24829102,-0.9690552,0.16571045,0.203125,-0.34375,0.40625
1696294659295,-0.24047852,-0.96588135,0.16790771,0.390625,0.09375,-0.28125
1696294659325,-0.2475586,-0.9661255,0.17352295,0.171875,-0.546875,0.359375
1696294659371,-0.2487793,-0.9690552,0.16131592,-0.421875,-0.71875,0.265625
1696294659399,-0.24414062,-0.96832275,0.15960693,-0.484375,-0.9375,0.28125
1696294659444,-0.24804688,-0.9680786,0.16522217,-0.40625,-0.796875,0.28125
1696294659490,-0.24511719,-0.97247314,0.16009521,-0.78125,-0.390625,-0.171875
1696294659519,-0.2409668,-0.9590454,0.16400146,-0.25,-0.71875,0.125
1696294659566,-0.24511719,-0.97003174,0.15179443,-1.46875,-1.734375,-0.078125
1696294659595,-0.24707031,-0.9573364,0.16668701,-0.1875,-0.28125,0.296875
1696294659639,-0.2614746,-0.97198486,0.14398193,-1.625,-1.3125,0.828125
1696294659686,-0.23754883,-0.97076416,0.16107178,-0.296875,-0.9375,0.140625
1696294659714,-0.2331543,-0.972229,0.16253662,-0.390625,0.609375,0.1875
1696294659761,-0.23583984,-0.96539307,0.16229248,-1.078125,-0.234375,0.234375
1696294659789,-0.24487305,-0.9702759,0.15960693,-1.21875,-0.171875,0.1875
1696294659835,-0.24780273,-0.9673462,0.17401123,-0.046875,0.359375,-0.015625
1696294659881,-0.23388672,-0.96051025,0.16571045,-1.734375,0.390625,-0.65625
1696294659909,-0.24951172,-0.9656372,0.17791748,-5.078125,0.046875,-0.859375
1696294659959,-0.24658203,-0.9536743,0.20306396,-8.59375,2.296875,-1.828125
1696294660029,-0.2265625,-0.96881104,0.1786499,-3.390625,-2.03125,-0.265625
1696294660031,-0.27075195,-0.9678345,0.17889404,-1.5625,-5.515625,0.203125
1696294660074,-0.24267578,-0.9678345,0.19012451,-0.703125,-3.6875,0.6875
1696294660104,-0.24975586,-0.9595337,0.17034912,-1.828125,-2.515625,0.515625
1696294660150,-0.22753906,-0.96954346,0.17181396,-0.828125,-1.703125,0.734375
1696294660195,-0.2446289,-0.9663696,0.19720459,0.390625,-0.640625,0.328125
1696294660225,-0.2590332,-0.96539307,0.19256592,1.3125,-1.578125,1.265625
1696294660272,-0.25830078,-0.9546509,0.20819092,0.609375,-1.8125,0.734375
1696294660299,-0.23925781,-0.9758911,0.17449951,0.375,1.046875,0.078125
1696294660346,-0.24902344,-0.9649048,0.17694092,0.78125,-1.015625,0.109375
1696294660388,-0.24658203,-0.96539307,0.1708374,1.015625,-2.328125,-0.25
1696294660420,-0.23339844,-0.95928955,0.17059326,1.765625,-1.171875,0.296875
1696294660465,-0.24707031,-0.9710083,0.16009521,-0.28125,-2.6875,0.203125
1696294660509,-0.24145508,-0.9644165,0.15960693,0.328125,-2.4375,0.546875
1696294660538,-0.2368164,-0.96539307,0.16033936,0.421875,-1.703125,0.171875
1696294660584,-0.24047852,-0.96173096,0.15472412,-1.75,-1.4375,-0.4375
1696294660615,-0.23510742,-0.9714966,0.15374756,-4.546875,-0.328125,-1.6875
1696294660662,-0.24584961,-0.96710205,0.17889404,-2.03125,-0.484375,-1.203125
1696294660706,-0.25341797,-0.9649048,0.18572998,-1.015625,-0.984375,-0.15625
1696294660734,-0.2626953,-0.9651489,0.18206787,0.25,-0.109375,0.828125
1696294660782,-0.26049805,-0.973938,0.18597412,0.078125,-1.40625,0.46875
1696294660809,-0.23706055,-0.95684814,0.18157959,1.109375,-0.40625,-0.046875
1696294660855,-0.25463867,-0.97003174,0.16131592,-2.171875,-2.1875,0.5625
1696294660900,-0.25341797,-0.9656372,0.1762085,-0.15625,-1.75,0.234375
1696294660930,-0.24926758,-0.9668579,0.17034912,-0.890625,-0.640625,-0.015625
1696294660976,-0.24658203,-0.96417236,0.17059326,-0.515625,-0.546875,-0.03125
1696294661005,-0.23779297,-0.96954346,0.16326904,-1.234375,-1.625,0.015625
1696294661049,-0.25756836,-0.9656372,0.17254639,0.28125,-1.546875,0.625
1696294661095,-0.25048828,-0.96588135,0.17303467,1.390625,-0.953125,0.203125
1696294661126,-0.2421875,-0.9663696,0.15789795,-0.40625,-1.328125,-0.046875
1696294661170,-0.24804688,-0.9644165,0.15789795,-0.171875,-0.59375,0.078125
1696294661214,-0.25097656,-0.9661255,0.17254639,-0.015625,-0.734375,0.109375
1696294661245,-0.25097656,-0.9644165,0.17401123,0.328125,-0.671875,0.296875
1696294661291,-0.24902344,-0.9680786,0.16644287,-0.015625,-0.828125,0.078125
1696294661319,-0.2487793,-0.97198486,0.16082764,-0.828125,-0.8125,-0.234375
1696294661364,-0.24145508,-0.9649048,0.16156006,-2.65625,-1.859375,-0.375
1696294661412,-0.24829102,-0.96051025,0.17132568,0.09375,-1.328125,0.421875
1696294661441,-0.25195312,-0.97735596,0.1486206,1.046875,-1.453125,0.375
1696294661488,-0.24951172,-0.9619751,0.16131592,1.078125,-0.65625,-0.140625
1696294661516,-0.24316406,-0.9663696,0.17303467,0.484375,0.40625,-0.0625
1696294661561,-0.2553711,-0.9651489,0.16156006,0.125,-0.265625,0.1875
1696294661606,-0.24316406,-0.9663696,0.16375732,-0.125,-1.140625,0.265625
1696294661635,-0.25048828,-0.9661255,0.1749878,0.125,-0.078125,-0.171875
1696294661681,-0.24487305,-0.9619751,0.15618896,-0.375,-0.78125,-0.328125
1696294661709,-0.24926758,-0.9656372,0.1539917,-0.4375,-1.5,0.40625
1696294661754,-0.24365234,-0.96881104,0.15325928,-0.09375,-1.109375,0.25
1696294661798,-0.2487793,-0.958313,0.15618896,-0.03125,-0.71875,0.265625
1696294661829,-0.24926758,-0.9668579,0.15081787,-1.203125,-0.765625,-0.046875
1696294661875,-0.24682617,-0.9668579,0.15447998,-1.046875,-0.453125,0.125
1696294661951,-0.24658203,-0.96051025,0.16131592,-0.671875,-0.359375,-0.015625
1696294661955,-0.24365234,-0.9663696,0.1552124,-0.671875,-1.078125,0.203125
1696294661994,-0.24267578,-0.96588135,0.14764404,-2.390625,-1.984375,-0.109375
1696294662024,-0.24975586,-0.96417236,0.16033936,-0.1875,-1.21875,0.5
1696294662071,-0.24780273,-0.9680786,0.15106201,-0.34375,-2.5,1.03125
1696294662115,-0.25683594,-0.97198486,0.1605835,-0.75,-0.828125,0.03125
1696294662145,-0.24145508,-0.9644165,0.15692139,0.171875,0.9375,0.0625
1696294662191,-0.2434082,-0.9685669,0.15570068,-0.734375,-0.421875,0.125
1696294662219,-0.2434082,-0.9692993,0.15325928,-0.546875,-0.625,0.09375
1696294662265,-0.25463867,-0.97052,0.16912842,0.40625,0.03125,0.0625
1696294662312,-0.24536133,-0.95977783,0.15618896,-0.765625,-0.421875,-0.03125
1696294662339,-0.25585938,-0.97052,0.15594482,-0.90625,-0.96875,0.59375
1696294662385,-0.23828125,-0.9636841,0.15594482,-0.75,-0.3125,0.140625
1696294662415,-0.25146484,-0.9692993,0.15667725,-0.828125,-0.765625,0.4375
1696294662491,-0.24316406,-0.97003174,0.1671753,-1.296875,-0.875,0.109375
1696294662504,-0.25048828,-0.96343994,0.16204834,-0.984375,-0.515625,-0.1875
1696294662536,-0.25,-0.96051025,0.1605835,-1.296875,-0.796875,-0.328125
1696294662580,-0.25219727,-0.9690552,0.15887451,-1.734375,-0.75,-0.40625
1696294662656,-0.24389648,-0.9663696,0.15985107,-3.859375,-0.96875,-0.59375
1696294662660,-0.25268555,-0.96759033,0.18450928,-6.875,2.046875,-1.984375
1696294662700,-0.23828125,-0.9702759,0.15496826,-5.3125,-0.296875,-1.109375
1696294662730,-0.2680664,-0.96588135,0.18963623,-1.640625,-2.5,-0.65625
1696294662774,-0.24926758,-0.9602661,0.18695068,-0.859375,-1.0625,-0.75
1696294662822,-0.25073242,-0.95562744,0.18475342,-2.515625,-0.484375,-0.34375
1696294662849,-0.25927734,-0.9619751,0.19085693,-1.21875,-0.609375,-0.375
1696294662895,-0.2578125,-0.9619751,0.19256592,-0.8125,-0.359375,-0.046875
1696294662924,-0.25854492,-0.9612427,0.1774292,-1.640625,-1.40625,0.015625
1696294662972,-0.2631836,-0.96881104,0.18597412,-1.015625,-1.390625,0.28125
1696294663014,-0.25927734,-0.9656372,0.19134521,0.546875,-1.109375,0.5
1696294663044,-0.24804688,-0.96343994,0.18157959,0.734375,-1.625,0.734375
1696294663091,-0.24975586,-0.95880127,0.18133545,1.40625,-2.21875,1.3125
1696294663120,-0.25097656,-0.96173096,0.1720581,-0.21875,-2.0625,0.265625
1696294663167,-0.23706055,-0.9656372,0.1798706,0.828125,-0.796875,0.484375
1696294663212,-0.24560547,-0.95684814,0.16986084,-0.796875,-1.390625,-0.140625
1696294663240,-0.24926758,-0.9729614,0.1696167,-0.9375,-1.53125,0.0
1696294663288,-0.24951172,-0.96173096,0.17718506,-0.4375,-0.1875,-0.625
1696294663330,-0.25,-0.95513916,0.1828003,-0.15625,-0.40625,-0.15625
1696294663359,-0.26293945,-0.956604,0.17230225,-2.25,-2.3125,-0.09375
1696294663406,-0.25878906,-0.9624634,0.18939209,-0.03125,-0.59375,0.875
1696294663434,-0.25683594,-0.9590454,0.1720581,-0.84375,-0.703125,0.203125
1696294663479,-0.24804688,-0.95928955,0.17376709,-0.546875,-1.203125,0.25
1696294663524,-0.25097656,-0.9661255,0.17425537,-1.25,-1.03125,-0.421875
1696294663554,-0.25708008,-0.960022,0.17327881,-1.484375,-1.90625,0.3125
1696294663601,-0.25390625,-0.96173096,0.17230225,-0.765625,-1.21875,-0.234375
