# Sensor type: Respeck
# Activity type: Sitting
# Activity subtype: Laughing
# Subject id: s2094833
# Notes: 
timestamp,accel_x,accel_y,accel_z,gyro_x,gyro_y,gyro_z
1696292804514,-0.07299805,-0.97491455,0.085632324,3.21875,-1.125,2.15625
1696292804558,-0.10498047,-1.0005493,0.062683105,-1.0,1.65625,1.046875
1696292804589,-0.122802734,-1.0108032,0.061950684,-0.109375,-0.265625,0.296875
1696292804634,-0.092285156,-1.0015259,0.06390381,0.390625,0.171875,0.265625
1696292804664,-0.08300781,-0.9768677,0.061706543,-0.71875,0.296875,0.015625
1696292804708,-0.05078125,-0.9727173,-0.039611816,5.140625,-5.734375,3.5
1696292804754,0.025146484,-1.022522,0.011169434,7.8125,8.859375,-2.4375
1696292804783,-0.053222656,-0.8093872,0.19158936,-14.0625,2.8125,7.9375
1696292804830,-0.25195312,-1.065979,0.2555542,-9.84375,2.71875,-2.28125
1696292804859,-0.14624023,-1.0862427,0.21136475,-0.90625,3.03125,0.953125
1696292804904,-0.14282227,-0.9846802,0.109069824,-2.0625,-5.265625,-3.90625
1696292804949,-0.02758789,-0.92193604,0.048034668,-6.5625,-1.140625,-5.390625
1696292804979,-0.19213867,-0.9517212,0.16497803,-3.234375,-3.265625,-2.28125
1696292805025,-0.032470703,-1.0125122,0.13934326,-1.421875,-4.6875,0.90625
1696292805070,-0.1472168,-1.0210571,0.08856201,-3.9375,-2.71875,2.328125
1696292805100,-0.061767578,-1.0137329,0.086364746,3.28125,-1.1875,1.28125
1696292805144,-0.07373047,-0.96099854,0.11395264,2.140625,-0.640625,0.203125
1696292805175,-0.12768555,-1.0134888,0.15863037,1.078125,-0.75,-0.296875
1696292805218,-0.10571289,-0.98223877,0.11273193,-0.546875,-0.4375,0.0625
1696292805264,-0.1015625,-1.0222778,0.078308105,-3.96875,-0.65625,-0.921875
1696292805294,-0.09277344,-0.98223877,0.12420654,-1.640625,0.625,-3.6875
1696292805339,-0.14990234,-0.9771118,0.137146,-3.640625,-0.890625,-0.28125
1696292805368,-0.095458984,-0.9846802,0.10003662,-3.828125,0.59375,0.078125
1696292805430,-0.083496094,-0.9902954,0.04901123,-4.765625,-1.828125,-0.640625
1696292805459,-0.07446289,-0.98687744,0.10101318,-5.75,1.03125,-1.984375
1696292805488,-0.10986328,-0.9885864,0.13568115,-2.390625,-0.5,-1.578125
1696292805534,-0.06689453,-0.9624634,0.15985107,-4.015625,0.484375,-2.109375
1696292805564,-0.1665039,-0.9817505,0.18499756,-3.375,2.125,1.28125
1696292805609,-0.20166016,-1.0249634,0.2062378,-3.703125,1.484375,0.46875
1696292805653,-0.1184082,-1.0488892,0.18792725,1.171875,2.296875,0.40625
1696292805684,-0.14892578,-0.960022,0.18939209,0.65625,-0.03125,4.078125
1696292805729,-0.106933594,-0.98223877,0.17523193,-3.96875,-1.953125,1.140625
1696292805774,-0.1315918,-0.96295166,0.21087646,0.8125,0.546875,6.234375
1696292805806,-0.13500977,-1.005188,0.19012451,-6.59375,-5.0,6.890625
1696292805849,-0.099365234,-1.0105591,0.16741943,-1.390625,-7.515625,3.109375
1696292805880,-0.103759766,-0.98516846,0.117614746,1.96875,-7.828125,0.6875
1696292805924,-0.020507812,-0.9673462,0.10101318,6.125,-2.015625,0.203125
1696292805968,-0.0690918,-1.0266724,-0.008361816,18.6875,-7.78125,7.5625
1696292805999,0.13183594,-1.0855103,-0.13433838,12.578125,13.875,8.09375
1696292806045,0.10571289,-0.7473755,-0.05328369,-6.671875,11.609375,0.84375
1696292806075,-0.35424805,-0.98565674,0.44647217,-9.75,1.109375,2.28125
1696292806118,-0.024169922,-1.190979,0.17962646,-15.359375,-11.671875,-1.203125
1696292806164,0.015625,-0.9385376,-7.9345703E-4,3.28125,-5.96875,-1.171875
1696292806194,-0.015136719,-0.98150635,0.08807373,-9.140625,-3.75,-3.609375
1696292806238,-0.14477539,-0.913147,0.20428467,-0.859375,-3.921875,-4.359375
1696292806283,-0.13183594,-1.0591431,0.12835693,-7.296875,-3.5,0.859375
1696292806314,0.01977539,-1.048645,0.078063965,0.265625,-3.75,-1.71875
1696292806359,-0.099121094,-0.9812622,0.11590576,-3.125,-1.640625,-3.921875
1696292806389,-0.13696289,-0.95635986,0.17669678,3.21875,-0.515625,1.078125
1696292806433,-0.0021972656,-1.0095825,0.13494873,-2.109375,1.484375,-2.328125
1696292806480,-0.09790039,-0.99835205,0.13641357,-2.5625,-3.203125,0.15625
1696292806509,-0.10620117,-1.0488892,0.117370605,-0.375,-0.625,-2.25
1696292806555,-0.06298828,-0.9963989,0.1630249,4.734375,-1.15625,-2.125
1696292806599,-0.13500977,-0.9651489,0.15863037,8.296875,-0.359375,-1.5
1696292806629,-0.1184082,-1.008606,0.109558105,4.71875,-10.234375,-4.578125
1696292806674,-0.06518555,-1.0105591,0.11932373,9.9375,-3.0625,-5.625
1696292806703,-0.13012695,-1.000061,0.06561279,4.4375,-1.953125,-4.40625
1696292806750,-0.14379883,-1.013977,0.06121826,2.640625,2.71875,-6.09375
1696292806780,-0.092041016,-1.0098267,-0.061828613,-0.96875,0.8125,-0.6875
1696292806824,0.05419922,-0.92193604,-0.10406494,-4.703125,6.71875,-4.046875
1696292806870,-0.009033203,-0.8538208,0.10369873,-27.265625,9.8125,6.296875
1696292806902,-0.33496094,-1.0808716,0.28900146,-22.5,-6.25,-2.59375
1696292806944,-0.21508789,-1.1174927,0.369812,-4.109375,-1.953125,-9.078125
1696292806990,-0.036132812,-0.92803955,0.074401855,5.328125,-2.015625,-9.109375
1696292807020,-0.10888672,-0.9168091,0.062194824,-9.125,-5.875,-3.703125
1696292807063,-0.14746094,-0.99713135,0.18841553,-2.734375,-1.46875,-5.6875
1696292807094,-0.2055664,-0.9932251,0.16815186,-1.796875,-0.640625,-2.9375
1696292807140,-0.20605469,-1.0037231,0.14569092,-3.3125,-1.15625,-1.796875
1696292807184,-0.18530273,-0.960022,0.13641357,-3.875,-1.828125,-3.46875
1696292807214,-0.17919922,-0.9483032,0.16815186,-0.9375,1.828125,-1.90625
1696292807259,-0.20507812,-0.9807739,0.17645264,-2.875,-0.828125,-2.703125
1696292807289,-0.1809082,-0.9854126,0.14886475,-3.390625,-0.046875,-2.34375
1696292807334,-0.19458008,-0.9924927,0.16278076,-2.46875,3.03125,-3.953125
1696292807378,-0.17651367,-0.9937134,0.18426514,-2.609375,0.765625,-2.0
1696292807409,-0.17480469,-0.9915161,0.20916748,-5.640625,2.4375,-3.46875
1696292807455,-0.24560547,-0.9751587,0.17474365,-12.546875,3.59375,-5.953125
1696292807483,-0.21166992,-0.9710083,0.19256592,-4.4375,1.3125,-5.21875
1696292807529,-0.23706055,-1.0088501,0.20135498,0.109375,6.03125,-4.828125
1696292807574,-0.23217773,-0.9746704,0.24261475,5.3125,11.203125,-6.25
1696292807604,-0.20166016,-0.93096924,0.19451904,4.875,9.109375,-3.25
1696292807649,-0.15820312,-0.8633423,-0.023986816,7.75,-11.578125,5.515625
1696292807694,-0.040283203,-0.8399048,0.14788818,15.3125,0.8125,7.109375
1696292807725,-0.15454102,-0.81085205,0.30511475,-23.71875,-5.625,11.203125
1696292807770,-0.40673828,-1.1160278,0.3937378,-12.890625,1.140625,-6.109375
1696292807798,-0.4152832,-1.1099243,0.434021,-3.0,-3.5,-0.8125
1696292807844,-0.09082031,-0.95025635,0.2321167,11.515625,-0.078125,-6.09375
1696292807889,-0.16821289,-0.9155884,0.07928467,-9.203125,-4.015625,-3.90625
1696292807918,-0.22753906,-0.88360596,0.24505615,-1.9375,-0.71875,-1.59375
1696292807964,-0.2253418,-1.0081177,0.27630615,0.359375,-2.953125,2.375
1696292807993,-0.23120117,-0.9976196,0.2020874,-4.515625,-5.734375,3.65625
1696292808040,-0.17407227,-0.98321533,0.15472412,-8.09375,-7.96875,-1.828125
1696292808084,-0.17578125,-0.88067627,0.22283936,-4.03125,-4.15625,-0.78125
1696292808113,-0.27490234,-0.956604,0.24676514,-5.75,-1.53125,1.15625
1696292808158,-0.26586914,-1.0134888,0.25628662,-3.125,0.125,-0.53125
1696292808204,-0.1706543,-0.98101807,0.18963623,-2.90625,-1.84375,-1.71875
1696292808234,-0.20385742,-0.9458618,0.22845459,-3.5625,0.28125,-1.015625
1696292808279,-0.19946289,-0.93634033,0.26531982,-2.078125,0.515625,-0.859375
1696292808309,-0.24438477,-0.9783325,0.25091553,-1.03125,2.3125,3.3125
1696292808354,-0.2277832,-0.9636841,0.30340576,3.359375,3.296875,3.890625
1696292808399,-0.2368164,-0.9841919,0.29144287,1.03125,0.65625,4.28125
1696292808429,-0.21826172,-0.94903564,0.27679443,3.734375,-3.875,5.828125
1696292808475,-0.20532227,-0.9807739,0.21209717,3.390625,-1.5,4.96875
1696292808504,-0.22485352,-1.0130005,0.15887451,11.34375,8.734375,5.5625
1696292808552,-0.17236328,-0.9241333,0.09442139,23.90625,-7.15625,8.9375
1696292808594,0.03100586,-1.0100708,-0.1638794,16.203125,7.453125,13.28125
1696292808624,-0.06933594,-0.9480591,0.078552246,12.578125,19.28125,11.375
1696292808670,-0.21142578,-1.0003052,0.24871826,-17.71875,2.21875,4.9375
1696292808698,-0.21289062,-1.019104,0.36663818,1.015625,-0.328125,-1.25
1696292808743,-0.076660156,-0.9846802,0.1305542,-16.09375,-14.75,-5.25
1696292808788,-0.12792969,-0.9873657,0.20184326,-3.953125,-8.625,-4.546875
1696292808818,-0.114746094,-0.9817505,0.11834717,-12.9375,-13.515625,-3.828125
1696292808864,-0.13256836,-0.9368286,0.21307373,-7.0,-2.28125,-3.1875
1696292808910,-0.2133789,-1.0366821,0.24725342,2.8125,-0.140625,2.609375
1696292808939,-0.114990234,-0.98809814,0.18206787,4.578125,0.03125,-0.5625
1696292808984,-0.13378906,-0.9612427,0.14764404,0.25,-2.390625,-2.265625
1696292809014,-0.1796875,-0.9824829,0.14813232,0.15625,-4.296875,1.328125
1696292809059,-0.16699219,-0.9619751,0.1720581,-2.609375,-4.34375,-1.515625
1696292809107,-0.19726562,-1.0122681,0.20452881,-2.703125,3.28125,-1.359375
1696292809149,-0.18823242,-0.98809814,0.20916748,1.671875,3.59375,-2.296875
1696292809181,-0.15356445,-0.9612427,0.16815186,-0.875,-0.296875,-2.6875
1696292809210,-0.15771484,-0.9602661,0.19232178,1.3125,-3.046875,3.328125
1696292809257,-0.18530273,-0.95684814,0.20379639,-1.25,-4.09375,1.5625
1696292809301,-0.11645508,-0.9746704,0.10443115,-4.90625,-4.96875,-0.375
1696292809329,-0.15673828,-0.98565674,0.15374756,-2.421875,3.515625,-3.984375
1696292809377,-0.14648438,-0.99298096,0.19671631,0.828125,-0.640625,-3.90625
1696292809405,-0.18774414,-0.96661377,0.20013428,-3.75,-6.140625,0.15625
1696292809450,-0.17993164,-0.96832275,0.20281982,-7.875,-2.5,-2.625
1696292809496,-0.20117188,-0.95880127,0.2579956,2.609375,1.765625,-0.1875
1696292809525,-0.20336914,-0.9649048,0.20037842,0.5625,3.765625,-0.875
1696292809570,-0.16186523,-0.9793091,0.21624756,0.359375,1.171875,-1.234375
1696292809614,-0.18701172,-0.96710205,0.18328857,0.03125,0.296875,0.65625
1696292809659,-0.17871094,-0.9619751,0.21185303,1.921875,-0.5,1.1875
1696292809690,-0.17797852,-0.9871216,0.20697021,-2.6875,-2.34375,2.578125
1696292809720,-0.15966797,-0.9697876,0.15814209,-17.421875,-3.3125,-0.71875
1696292809765,-0.22143555,-1.0164185,0.24505615,-4.40625,0.921875,1.875
1696292809810,-0.2277832,-1.0115356,0.22503662,1.171875,0.1875,1.140625
1696292809842,-0.18823242,-0.95318604,0.14715576,10.90625,-1.828125,1.59375
1696292809886,-0.05493164,-1.0010376,0.07513428,7.765625,-0.078125,2.5
1696292809914,-0.09692383,-0.9277954,0.20892334,-0.5625,1.46875,6.796875
1696292809976,-0.19506836,-0.9026489,0.3348999,-6.65625,1.5,-2.625
1696292810006,-0.27197266,-1.0432739,0.3847046,5.140625,-1.9375,5.0625
1696292810036,-0.18481445,-0.97247314,0.17034912,-5.546875,-7.21875,-1.71875
1696292810079,-0.107666016,-0.9939575,0.17059326,-7.421875,-8.03125,-3.5
1696292810110,-0.19165039,-0.9241333,0.26068115,-0.46875,-2.953125,-2.484375
1696292810156,-0.19262695,-0.97613525,0.21380615,-1.625,0.359375,2.203125
1696292810199,-0.12670898,-0.9976196,0.19573975,-0.546875,-1.859375,-2.484375
1696292810230,-0.1809082,-0.9692993,0.18817139,-2.015625,-1.859375,-0.828125
1696292810274,-0.18701172,-1.0061646,0.24407959,0.5,-1.015625,-0.140625
1696292810321,-0.16821289,-0.95440674,0.20111084,-2.984375,-4.640625,0.25
1696292810349,-0.13208008,-0.97052,0.2140503,-5.25,-0.625,-0.96875
1696292810397,-0.23071289,-0.9751587,0.2538452,-2.828125,-0.453125,-1.828125
1696292810425,-0.18798828,-0.9517212,0.2567749,0.734375,1.390625,0.46875
1696292810472,-0.1953125,-0.9854126,0.24383545,2.6875,2.78125,1.703125
1696292810517,-0.15844727,-0.9458618,0.24871826,4.421875,3.875,3.21875
1696292810545,-0.21411133,-0.9649048,0.260437,3.4375,3.5625,4.921875
1696292810592,-0.17700195,-0.98443604,0.22601318,6.03125,2.625,6.9375
1696292810618,-0.16772461,-1.0046997,0.15838623,2.84375,3.296875,4.75
1696292810667,-0.13989258,-1.0132446,0.18817139,9.40625,2.53125,3.96875
1696292810711,-0.107910156,-0.99420166,0.1539917,10.6875,1.0,1.265625
1696292810741,-0.072265625,-0.9368286,0.09222412,15.140625,-6.296875,3.90625
1696292810785,-0.037109375,-1.0549927,-0.074523926,12.546875,7.15625,4.4375
1696292810831,-0.008544922,-0.8948364,0.093933105,-1.703125,14.015625,5.765625
1696292810860,-0.1899414,-0.97125244,0.31756592,-16.984375,1.421875,-1.625
1696292810904,-0.1796875,-1.1045532,0.3163452,4.3125,-3.765625,-1.53125
1696292810936,-0.110839844,-0.9793091,0.15374756,-0.328125,-6.484375,-4.109375
1696292810980,-0.061279297,-1.0025024,0.026794434,-12.296875,-8.859375,-3.703125
1696292811024,-0.19042969,-0.9390259,0.19891357,1.984375,-3.71875,-2.984375
1696292811054,-0.109375,-0.9492798,0.1618042,-2.875,-2.640625,1.578125
1696292811100,-0.12036133,-1.0083618,0.14447021,1.453125,-2.078125,1.28125
1696292811131,-0.12426758,-0.9871216,0.15179443,1.40625,-3.8125,0.625
1696292811174,-0.15576172,-0.9920044,0.18084717,2.078125,0.5625,0.765625
1696292811221,-0.15551758,-0.98443604,0.16571045,3.15625,1.296875,1.203125
1696292811250,-0.11669922,-0.9998169,0.16278076,4.015625,3.265625,1.78125
1696292811294,-0.16235352,-0.9890747,0.1395874,1.8125,4.828125,3.015625
1696292811326,-0.12939453,-0.9741821,0.17816162,4.53125,5.53125,2.90625
1696292811369,-0.16259766,-1.000061,0.19110107,5.03125,3.421875,7.046875
1696292811416,-0.12011719,-1.0303345,0.097839355,-0.453125,-0.65625,5.390625
1696292811444,-0.032714844,-1.019104,0.0036010742,6.296875,-6.578125,1.8125
1696292811491,0.05102539,-0.9570923,-0.06427002,15.875,0.828125,6.296875
1696292811534,-0.033691406,-0.9932251,0.11175537,6.484375,-0.875,4.71875
1696292811565,-0.13452148,-0.8262329,0.1437378,-18.96875,-4.65625,-3.8125
1696292811610,-0.22705078,-1.1331177,0.21673584,-3.609375,-3.375,5.515625
1696292811640,-0.10205078,-1.0405884,0.23822021,5.578125,-4.3125,-0.9375
1696292811687,-0.024169922,-0.8904419,-0.003479004,-1.40625,-9.40625,1.140625
1696292811746,-0.07836914,-1.000061,0.093444824,-7.640625,-1.90625,-2.375
1696292811759,-0.09033203,-0.9993286,0.09466553,-3.90625,-0.734375,0.3125
1696292811805,-0.08227539,-1.0618286,0.17962646,4.65625,-0.53125,1.765625
1696292811834,-0.087890625,-0.96832275,0.06488037,-1.890625,-5.515625,0.328125
1696292811882,-0.06518555,-0.9331665,0.07171631,-3.375,-3.390625,-0.515625
1696292811924,-0.07055664,-1.0025024,0.1227417,-2.15625,0.46875,-1.921875
1696292811954,-0.1328125,-1.03302,0.13983154,4.203125,-0.234375,1.875
1696292812002,-0.041992188,-1.0269165,0.055603027,-5.09375,-3.796875,-2.140625
1696292812030,-0.08862305,-0.9439087,0.12786865,0.578125,-0.96875,-0.765625
1696292812076,-0.111328125,-0.9702759,0.10345459,2.984375,1.640625,1.15625
1696292812120,-0.103515625,-1.0527954,0.0692749,-0.921875,1.25,4.421875
1696292812150,-0.03955078,-1.0256958,0.117370605,0.1875,-2.515625,-0.984375
1696292812198,-0.05883789,-0.9585571,0.116882324,-3.703125,-4.234375,-4.109375
1696292812270,-0.1184082,-1.0205688,0.1071167,-6.28125,-4.484375,-4.921875
1696292812275,-0.040771484,-0.9734497,0.13568115,-0.859375,-0.625,-1.09375
1696292812313,-0.099609375,-0.9846802,0.13031006,-5.21875,-0.140625,-2.25
1696292812345,-0.1340332,-1.0379028,0.13372803,-3.734375,-2.25,-2.46875
1696292812390,-0.103027344,-0.9624634,0.10638428,-1.921875,-3.09375,-1.90625
1696292812433,-0.12841797,-0.9734497,0.13275146,-3.234375,1.109375,-2.734375
1696292812464,-0.11621094,-0.9885864,0.14984131,-4.3125,-2.390625,-2.625
1696292812508,-0.1640625,-1.0188599,0.19818115,-0.578125,0.078125,-1.859375
1696292812539,-0.13110352,-1.000061,0.05633545,-5.046875,-6.78125,-2.796875
1696292812585,-0.06982422,-0.9849243,0.14105225,2.078125,0.375,-4.609375
1696292812630,-0.06958008,-1.0134888,0.11029053,-2.1875,-3.0625,-2.40625
1696292812659,-0.13085938,-1.0232544,0.074401855,-8.765625,-5.046875,-4.0625
1696292812705,-0.057617188,-0.9717407,0.18377686,-6.25,0.28125,-7.46875
1696292812735,-0.20166016,-0.9873657,0.20648193,-6.53125,-0.9375,-3.8125
1696292812779,-0.21044922,-0.98809814,0.15545654,-3.640625,-1.78125,-5.859375
1696292812828,-0.16772461,-0.97442627,0.1762085,-3.203125,-0.34375,-6.09375
1696292812854,-0.20336914,-0.97198486,0.1605835,-8.4375,-2.46875,-4.296875
1696292812901,-0.15673828,-0.96221924,0.18011475,-4.6875,0.703125,-4.453125
1696292812946,-0.2265625,-0.98272705,0.22869873,-2.046875,3.5,-3.34375
1696292812976,-0.20922852,-0.9690552,0.20111084,-8.25,0.640625,-4.40625
1696292813020,-0.18847656,-0.94610596,0.23162842,-2.546875,1.984375,-4.765625
1696292813050,-0.22241211,-0.9714966,0.26190186,5.9375,0.96875,-0.953125
1696292813096,-0.21264648,-0.98394775,0.21160889,3.484375,-0.625,-1.609375
1696292813141,-0.18334961,-0.95318604,0.22113037,4.75,4.828125,-0.703125
1696292813170,-0.25756836,-0.9968872,0.14031982,0.3125,4.390625,0.875
1696292813216,-0.21289062,-1.0361938,0.1906128,6.78125,17.0,-2.515625
1696292813246,-0.20214844,-0.95635986,0.17694092,10.84375,21.09375,2.203125
1696292813290,-0.234375,-0.9619751,0.1317749,8.0,6.8125,2.28125
1696292813336,-0.16210938,-0.9614868,0.17327881,6.984375,1.0625,-0.5
1696292813364,-0.15234375,-0.96539307,0.13153076,4.578125,-0.1875,-0.59375
1696292813411,-0.17480469,-0.9805298,0.14642334,1.203125,-1.8125,-2.03125
1696292813456,-0.16503906,-0.9553833,0.13079834,1.15625,-7.828125,0.3125
1696292813484,-0.18774414,-0.96588135,0.13031006,0.78125,-12.3125,1.5625
1696292813530,-0.15527344,-0.9402466,0.01361084,2.15625,-24.453125,10.140625
1696292813559,-0.083984375,-0.87872314,-0.020080566,-8.15625,-13.796875,16.0
1696292813604,-0.22265625,-1.0046997,0.2033081,-26.875,-12.125,-0.6875
1696292813649,-0.2475586,-1.1372681,0.28851318,1.40625,4.6875,2.640625
1696292813679,-0.20947266,-1.0276489,0.19744873,-4.5625,0.75,-6.953125
1696292813724,-0.12207031,-0.93951416,0.15228271,3.375,2.828125,-2.34375
1696292813754,-0.1977539,-0.9458618,0.16448975,2.546875,-2.796875,-1.703125
1696292813801,-0.23095703,-0.93170166,0.09661865,-0.921875,-5.109375,1.4375
1696292813845,-0.13256836,-1.0098267,0.1539917,-3.8125,-3.03125,0.90625
1696292813874,-0.13793945,-1.0020142,0.1449585,-0.140625,-1.640625,-0.234375
1696292813921,-0.18383789,-1.0078735,0.18719482,1.578125,-4.890625,2.25
1696292813949,-0.16064453,-0.9224243,0.15740967,-1.078125,-1.953125,0.53125
1696292813995,-0.17797852,-0.98394775,0.17816162,-4.015625,0.40625,-0.21875
1696292814039,-0.19116211,-0.9915161,0.18914795,2.125,-1.421875,0.8125
1696292814071,-0.15258789,-0.97613525,0.16619873,-1.0625,0.53125,-2.8125
1696292814114,-0.16333008,-0.9612427,0.1293335,0.5,-1.96875,-1.015625
1696292814191,-0.1508789,-0.9734497,0.1251831,0.53125,-2.25,-0.90625
1696292814196,-0.19750977,-0.95025635,0.14031982,1.0,-1.125,3.265625
1696292814237,-0.18847656,-1.0230103,0.09539795,-6.109375,-0.59375,0.4375
1696292814265,-0.18896484,-0.9663696,0.24066162,0.875,-3.234375,-0.796875
1696292814309,-0.17382812,-0.9439087,0.24578857,1.515625,-1.78125,2.6875
1696292814355,-0.2055664,-0.9468384,0.14178467,-2.40625,-0.203125,2.6875
1696292814386,-0.15991211,-0.99053955,0.14202881,3.15625,0.109375,4.734375
1696292814429,-0.12231445,-0.9812622,0.13616943,0.71875,-1.78125,0.90625
1696292814459,-0.17675781,-0.9771118,0.19744873,4.6875,-0.46875,2.5625
1696292814505,-0.15185547,-1.0029907,0.13201904,0.640625,0.703125,2.671875
1696292814551,-0.12524414,-0.9944458,0.093933105,1.625,1.34375,1.53125
1696292814579,-0.11303711,-0.97076416,0.11810303,0.5,-1.0,0.375
1696292814625,-0.16210938,-0.9985962,0.1408081,-3.375,1.28125,2.40625
1696292814655,-0.20483398,-1.0010376,0.21575928,7.96875,0.953125,4.75
1696292814699,-0.1171875,-1.0044556,0.1449585,1.328125,0.171875,1.4375
1696292814744,-0.16723633,-0.9758911,0.117370605,1.09375,0.5625,0.71875
1696292814789,-0.107421875,-0.9956665,0.097351074,-3.203125,-1.953125,-0.296875
1696292814820,-0.14111328,-0.9627075,0.13616943,-1.53125,-2.734375,0.25
1696292814895,-0.1574707,-0.99542236,0.13494873,1.953125,-1.09375,1.703125
1696292814897,-0.07714844,-1.0081177,0.09246826,-0.3125,-1.09375,-0.28125
1696292814939,-0.1459961,-0.99176025,0.13201904,-1.765625,-1.171875,-0.625
1696292814968,-0.13378906,-0.97247314,0.1564331,-0.109375,-1.75,0.140625
1696292815015,-0.12695312,-0.97125244,0.14935303,-2.609375,-2.28125,0.265625
1696292815075,-0.14794922,-1.0039673,0.13421631,-3.046875,-3.90625,0.3125
1696292815089,-0.16577148,-1.0127563,0.15032959,-4.78125,-3.96875,0.65625
1696292815153,-0.14819336,-1.0183716,0.13543701,-5.515625,-2.90625,-0.265625
1696292815179,-0.14428711,-0.98883057,0.12860107,-3.46875,-0.734375,-2.21875
1696292815210,-0.115234375,-0.94415283,0.15716553,2.484375,-1.4375,-0.9375
1696292815255,-0.099121094,-1.0064087,0.038269043,-1.765625,-1.734375,-0.40625
1696292815284,0.008056641,-0.95635986,0.14398193,11.046875,1.59375,0.171875
1696292815332,-0.1706543,-0.82598877,0.16326904,-11.484375,-4.359375,4.765625
1696292815359,-0.2475586,-1.0930786,0.23626709,-3.1875,0.890625,1.25
1696292815404,-0.17016602,-1.065979,0.1786499,-1.0,-2.3125,-0.3125
1696292815449,-0.08984375,-0.9668579,0.04071045,-7.359375,-8.0,-4.578125
1696292815479,-0.12768555,-0.88946533,0.15081787,-4.484375,1.421875,-4.359375
1696292815526,-0.23754883,-0.9512329,0.2345581,0.0625,-3.21875,1.5625
1696292815571,-0.16381836,-1.0322876,0.14251709,-3.953125,-1.90625,-0.78125
1696292815599,-0.10644531,-1.0105591,0.12176514,0.390625,-3.09375,-0.8125
1696292815645,-0.13378906,-0.95147705,0.1708374,-2.921875,-2.4375,-3.609375
1696292815675,-0.17456055,-0.9968872,0.1852417,2.609375,-1.515625,0.21875
1696292815720,-0.15185547,-0.96588135,0.15740967,-2.453125,-1.96875,-0.796875
1696292815764,-0.15722656,-1.0112915,0.14202881,-1.0625,-0.84375,-1.28125
1696292815793,-0.20385742,-0.97125244,0.17425537,4.953125,0.21875,-0.40625
1696292815840,-0.1640625,-1.0193481,0.15130615,1.875,1.296875,2.234375
1696292815869,-0.1640625,-0.9866333,0.17181396,5.71875,-0.875,1.515625
1696292815914,-0.17236328,-0.99713135,0.17474365,-0.140625,-1.40625,0.40625
1696292815976,-0.1508789,-0.99542236,0.10345459,-5.25,-2.78125,0.40625
1696292815990,-0.16821289,-0.9841919,0.117614746,-1.90625,-4.25,3.296875
1696292816036,-0.055908203,-1.050354,-0.113586426,9.59375,-8.09375,6.21875
1696292816080,0.013671875,-0.91973877,0.08441162,5.265625,18.734375,4.984375
1696292816109,-0.25756836,-0.8779907,0.25701904,-7.859375,-1.359375,3.765625
1696292816156,-0.2487793,-1.128479,0.27850342,0.53125,2.6875,6.375
1696292816184,-0.13354492,-0.97540283,0.10858154,-4.109375,-8.921875,-4.0
1696292816229,-0.030273438,-0.9854126,0.04559326,-7.90625,-1.953125,-2.578125
1696292816274,-0.13476562,-0.95562744,0.17840576,-4.4375,-1.6875,-5.21875
1696292816304,-0.12695312,-0.9607544,0.19012451,-2.359375,-2.109375,-1.078125
1696292816351,-0.15039062,-1.0420532,0.14276123,-5.96875,-2.84375,1.15625
1696292816426,-0.107910156,-0.96759033,0.15863037,1.84375,-0.484375,-0.625
1696292816429,-0.1274414,-0.9475708,0.15203857,-3.953125,-1.796875,-0.09375
1696292816469,-0.171875,-0.987854,0.2453003,0.921875,0.53125,3.625
1696292816498,-0.24291992,-1.0432739,0.18499756,2.90625,1.0625,7.140625
1696292816546,-0.14379883,-0.97247314,0.14251709,5.53125,0.046875,3.171875
1696292816590,-0.07495117,-0.9678345,0.14105225,7.046875,3.5,1.53125
1696292816619,-0.10839844,-1.0039673,0.15057373,5.65625,0.046875,0.15625
1696292816664,-0.10205078,-1.0476685,0.08294678,-4.296875,-4.984375,-2.6875
1696292816696,-0.087646484,-1.0215454,0.07904053,3.71875,-4.078125,3.328125
1696292816740,-0.040283203,-0.96881104,0.01776123,13.796875,-1.21875,4.296875
1696292816784,2.4414062E-4,-0.9697876,0.039733887,2.109375,3.078125,1.34375
1696292816815,-0.07885742,-0.90802,0.13616943,-5.546875,7.328125,-2.421875
1696292816858,-0.26708984,-1.0708618,0.23065186,-0.484375,-2.375,4.890625
1696292816889,-0.13208008,-1.0315552,0.1930542,-0.234375,-5.8125,-0.75
1696292816934,-0.09082031,-0.9273071,0.07269287,2.578125,-4.09375,3.5625
1696292816980,-0.15112305,-0.99224854,0.070007324,-2.984375,-1.78125,0.734375
1696292817009,-0.03491211,-0.9961548,0.08831787,-2.15625,-2.34375,-2.546875
1696292817055,-0.076171875,-0.9998169,0.10223389,-1.09375,1.140625,-0.59375
1696292817085,-0.06762695,-0.9944458,0.09979248,-0.34375,0.125,-2.8125
1696292817131,-0.09838867,-0.9854126,0.10760498,-2.109375,-1.984375,-0.734375
1696292817175,-0.09082031,-0.9963989,0.10467529,-1.109375,0.53125,-2.609375
1696292817204,-0.10229492,-0.9805298,0.09832764,-5.984375,-1.46875,-3.375
1696292817249,-0.16040039,-1.0122681,0.13616943,-3.515625,-1.453125,-3.828125
1696292817280,-0.14770508,-0.989563,0.109069824,-3.515625,-0.125,-3.296875
1696292817326,-0.1315918,-0.973938,0.14202881,-3.078125,0.953125,-5.546875
1696292817370,-0.15893555,-0.99664307,0.13616943,-5.734375,1.640625,-4.234375
1696292817399,-0.16137695,-0.98638916,0.13275146,-3.46875,-0.484375,-4.15625
1696292817446,-0.12011719,-0.97613525,0.13909912,-3.328125,-0.09375,-3.296875
1696292817521,-0.15014648,-0.99835205,0.14324951,-4.0625,-0.09375,-4.359375
1696292817525,-0.16870117,-0.97735596,0.1720581,-3.75,1.578125,-4.1875
1696292817564,-0.1616211,-0.9834595,0.16082764,-4.71875,0.25,-4.421875
1696292817594,-0.16479492,-0.9788208,0.1876831,-4.578125,-1.078125,-3.109375
1696292817640,-0.19726562,-1.006897,0.20574951,-5.109375,-0.609375,-2.515625
1696292817687,-0.17895508,-0.97003174,0.16815186,-8.96875,-4.21875,-3.453125
1696292817715,-0.17456055,-0.9651489,0.17327881,-7.46875,-1.546875,-2.921875
1696292817760,-0.23095703,-0.9866333,0.24505615,3.765625,-2.84375,-0.78125
1696292817790,-0.21118164,-0.9871216,0.12322998,-4.203125,-11.90625,-1.171875
1696292817836,-0.15600586,-0.98565674,-0.038391113,12.265625,5.65625,9.046875
1696292817879,-0.09082031,-0.91192627,0.17767334,17.46875,31.53125,13.796875
1696292817909,-0.14086914,-0.9351196,0.29022217,-10.0,15.03125,0.640625
1696292817953,-0.31445312,-0.95977783,0.33538818,5.859375,5.046875,1.640625
1696292817984,-0.12475586,-1.0227661,0.23382568,-5.25,-11.734375,-3.953125
1696292818029,-0.1159668,-0.99420166,0.14422607,-4.265625,-4.0,-5.3125
1696292818076,-0.1784668,-0.9951782,0.17156982,-4.296875,-5.546875,-1.71875
1696292818104,-0.19506836,-0.95147705,0.18988037,-0.140625,-2.0625,-1.5625
1696292818151,-0.13623047,-0.97662354,0.17303467,-1.4375,-0.78125,1.5625
1696292818197,-0.12988281,-1.0166626,0.14105225,-3.375,-2.78125,0.578125
1696292818224,-0.15429688,-0.95928955,0.1864624,-2.5,0.21875,-0.90625
1696292818270,-0.21289062,-0.97906494,0.2267456,-0.1875,0.546875,-0.796875
1696292818299,-0.1586914,-0.9380493,0.18060303,-1.234375,0.59375,-3.3125
1696292818344,-0.1665039,-0.9849243,0.19866943,-3.96875,-3.21875,-3.203125
1696292818390,-0.17260742,-0.9898071,0.24847412,2.78125,-3.03125,-3.859375
1696292818420,-0.18310547,-0.9690552,0.24700928,-0.875,-6.25,-2.84375
1696292818465,-0.16479492,-0.9729614,0.2477417,-2.53125,-10.828125,-0.53125
1696292818494,-0.23632812,-0.986145,0.16204834,2.296875,-5.109375,0.28125
1696292818539,-0.26879883,-0.9951782,0.16253662,9.859375,0.1875,4.5625
1696292818586,-0.17749023,-0.9800415,0.09661865,6.5625,-1.4375,3.8125
1696292818614,-0.09863281,-1.0120239,-0.07305908,2.734375,7.609375,3.453125
1696292818660,-0.043945312,-0.86968994,-0.0029907227,-22.21875,-2.28125,0.140625
1696292818707,-0.16430664,-0.9751587,0.34954834,-22.46875,13.109375,-5.765625
1696292818734,-0.24633789,-0.9873657,0.30096436,-6.046875,-1.640625,5.90625
1696292818783,-0.27734375,-0.9483032,0.4244995,10.09375,-7.53125,5.5
1696292818809,-0.15966797,-0.99053955,0.13568115,-6.9375,-17.171875,-1.703125
1696292818855,-0.14624023,-0.9380493,0.20355225,2.203125,-4.0625,4.234375
1696292818899,-0.19262695,-0.9920044,0.16156006,-1.21875,3.59375,2.0625
1696292818930,-0.13061523,-0.9795532,0.16375732,0.75,-2.09375,4.53125
1696292818974,-0.14868164,-0.99542236,0.15960693,1.328125,1.578125,0.828125
1696292819051,-0.12963867,-0.9690552,0.17156982,4.609375,1.515625,0.59375
1696292819054,-0.16235352,-0.9824829,0.22357178,3.65625,2.6875,2.1875
1696292819094,-0.17016602,-0.99102783,0.18182373,-0.78125,0.84375,1.671875
1696292819124,-0.14355469,-0.97320557,0.19622803,-2.1875,-3.0625,-0.296875
1696292819171,-0.17626953,-0.98394775,0.20526123,-0.484375,-1.71875,-0.953125
1696292819199,-0.18334961,-0.98931885,0.20526123,1.640625,4.953125,-0.921875
1696292819246,-0.13989258,-0.9614868,0.19866943,-1.90625,4.25,0.359375
1696292819289,-0.13598633,-0.9902954,0.14593506,3.765625,1.75,2.625
1696292819320,-0.11010742,-1.0020142,0.15374756,1.90625,-0.515625,2.8125
1696292819367,-0.15625,-0.99468994,0.17010498,1.546875,-3.21875,0.15625
1696292819409,-0.15014648,-0.95880127,0.17449951,1.75,2.328125,-0.875
1696292819438,-0.17285156,-0.9644165,0.16448975,-1.03125,2.59375,-2.421875
1696292819485,-0.12719727,-1.0064087,0.15130615,-3.640625,-4.640625,-0.28125
1696292819515,-0.16235352,-0.97784424,0.21990967,1.765625,1.125,-0.453125
1696292819561,-0.17529297,-0.99224854,0.23675537,5.0625,-2.140625,3.21875
1696292819604,-0.15771484,-0.9812622,0.124694824,-2.234375,-1.296875,0.640625
1696292819635,-0.1640625,-0.9614868,0.2243042,2.640625,1.34375,0.640625
1696292819680,-0.15649414,-0.9805298,0.20379639,-10.65625,-3.796875,-2.859375
1696292819710,-0.13305664,-0.9631958,0.1708374,-1.6875,-10.484375,-1.8125
1696292819756,-0.15454102,-0.94903564,0.061462402,-0.640625,-9.46875,-0.390625
1696292819801,-0.11791992,-1.0606079,0.11785889,8.484375,5.9375,3.9375
1696292819829,-0.13623047,-0.9907837,0.1984253,7.796875,-6.96875,-0.953125
1696292819879,-0.15917969,-0.8904419,0.17791748,-4.390625,-1.234375,3.140625
1696292819904,-0.16235352,-1.0425415,0.23773193,0.765625,1.40625,1.484375
1696292819949,-0.16137695,-1.0039673,0.12982178,-0.515625,-3.90625,1.828125
1696292819997,-0.13696289,-1.00177,0.09124756,-5.0,-4.4375,-1.625
1696292820039,-0.12866211,-0.9348755,0.16668701,-3.015625,0.515625,-2.1875
1696292820070,-0.18408203,-0.97540283,0.18621826,-0.890625,-1.59375,1.015625
1696292820114,-0.14575195,-0.98394775,0.1642456,-1.21875,0.875,-0.109375
1696292820144,-0.17211914,-0.9837036,0.17938232,-2.609375,-0.296875,0.203125
1696292820191,-0.16625977,-0.97735596,0.18377686,-0.03125,0.953125,-0.265625
1696292820219,-0.15625,-0.98931885,0.17816162,0.625,0.453125,2.09375
1696292820266,-0.14868164,-0.98101807,0.16033936,0.609375,-0.96875,1.5
1696292820310,-0.12524414,-1.0012817,0.17645264,3.09375,1.109375,0.625
1696292820340,-0.12646484,-0.97125244,0.17938232,-3.03125,1.125,-1.328125
1696292820387,-0.14941406,-0.9990845,0.18597412,2.265625,-3.78125,0.140625
1696292820414,-0.1784668,-1.0066528,0.19036865,4.40625,-7.609375,2.375
1696292820490,-0.19433594,-1.0044556,0.1149292,3.515625,-5.953125,2.84375
1696292820504,-0.05883789,-1.0061646,-0.009338379,9.9375,0.859375,3.484375
1696292820536,-0.09716797,-0.8460083,0.14593506,2.859375,-3.046875,5.03125
1696292820579,-0.13720703,-0.93463135,0.12884521,-12.046875,8.203125,-2.890625
1696292820610,-0.20141602,-1.0999146,0.23553467,-0.46875,-1.140625,6.796875
1696292820655,-0.103271484,-1.0303345,0.21331787,11.609375,-1.765625,0.234375
1696292820701,-0.1315918,-0.9558716,0.09710693,-9.609375,-9.109375,-2.890625
1696292820729,-0.09692383,-0.89434814,0.06072998,-7.984375,-4.1875,-2.03125
1696292820776,-0.1394043,-1.0003052,0.22015381,-2.9375,0.375,-2.703125
1696292820821,-0.18920898,-1.0574341,0.16278076,0.609375,-3.046875,2.578125
1696292820849,-0.09667969,-0.9898071,0.1239624,-3.75,-5.421875,-3.703125
1696292820897,-0.13183594,-0.9102173,0.16912842,-2.34375,-2.484375,-1.0
1696292820940,-0.16455078,-0.99664307,0.12322998,-2.109375,-0.109375,0.890625
1696292820970,-0.09033203,-0.989563,0.14691162,-1.40625,0.375,-0.359375
1696292821016,-0.18457031,-0.98760986,0.19671631,0.078125,4.203125,0.703125
1696292821045,-0.20751953,-0.99835205,0.2140503,6.40625,2.484375,2.25
1696292821092,-0.1394043,-0.9783325,0.18621826,5.421875,3.375,1.75
1696292821120,-0.14428711,-0.9771118,0.19281006,8.046875,2.59375,4.09375
1696292821164,-0.15576172,-0.96588135,0.18206787,6.59375,3.109375,5.828125
1696292821210,-0.10864258,-1.031311,0.10223389,2.96875,-3.609375,5.6875
1696292821239,-0.099365234,-1.017395,0.10003662,-0.34375,-6.28125,2.828125
1696292821285,-0.05834961,-0.9636841,0.002380371,7.71875,-0.359375,2.796875
1696292821331,-0.011962891,-1.0066528,-0.11065674,9.03125,6.671875,4.78125
1696292821360,-0.07397461,-0.95025635,0.17059326,3.0,7.015625,-0.234375
1696292821407,-0.14624023,-0.97369385,0.17645264,-2.5625,7.265625,0.171875
1696292821434,-0.23461914,-1.0662231,0.24407959,9.734375,-5.203125,6.921875
1696292821481,-0.061523438,-0.9883423,0.07611084,1.140625,-6.65625,-1.671875
1696292821524,-0.09472656,-0.95147705,0.066833496,-2.6875,-5.546875,2.875
1696292821554,-0.046875,-1.0427856,0.030700684,0.015625,-0.265625,-2.34375
1696292821601,-0.034423828,-0.9390259,0.08465576,-1.390625,0.171875,-2.765625
1696292821629,-0.10522461,-1.0432739,0.0927124,-1.046875,-2.03125,0.0
1696292821674,-0.09765625,-1.0205688,0.003112793,-4.125,-4.890625,0.25
1696292821719,-0.024658203,-0.9866333,0.09613037,-1.390625,3.203125,-6.265625
1696292821750,-0.14355469,-0.96881104,0.09979248,-3.828125,-1.859375,-3.171875
1696292821796,-0.1027832,-0.98150635,0.0993042,-2.03125,-0.0625,-1.1875
1696292821824,-0.11376953,-1.0220337,0.097595215,0.15625,-1.34375,-1.25
1696292821870,-0.13867188,-0.9841919,0.086364746,1.8125,0.390625,-1.875
1696292821915,-0.14428711,-1.0027466,0.11126709,-3.75,-2.953125,-1.234375
1696292821944,-0.13085938,-1.013977,0.0770874,-4.125,-0.90625,-3.3125
1696292821989,-0.11425781,-0.96051025,0.11517334,-1.796875,-1.65625,-2.453125
1696292822037,-0.1274414,-1.0130005,0.11102295,-6.75,-0.546875,-3.03125
1696292822063,-0.16235352,-0.9873657,0.14666748,-3.9375,-2.53125,-3.984375
1696292822110,-0.15600586,-1.0137329,0.16204834,-4.015625,-3.8125,-3.8125
1696292822140,-0.16479492,-0.95977783,0.15228271,1.28125,-5.359375,-4.796875
1696292822186,-0.09887695,-0.9727173,0.1005249,3.3125,0.265625,-1.171875
1696292822231,-0.15429688,-1.0117798,0.09124756,0.484375,-1.15625,-1.0625
1696292822259,-0.12988281,-0.9627075,0.113220215,-0.890625,-4.875,0.546875
1696292822306,-0.095214844,-0.97442627,-0.0256958,0.109375,0.671875,0.859375
1696292822336,-0.050048828,-0.9612427,-0.013244629,-2.578125,4.078125,-4.171875
1696292822381,-0.08203125,-0.9500122,0.12420654,-15.953125,-4.234375,-1.0
1696292822427,-0.27490234,-1.0090942,0.29364014,9.46875,4.0625,2.0
1696292822454,-0.21875,-0.97857666,0.14276123,-9.078125,-8.21875,3.015625
1696292822502,-0.08154297,-1.0083618,0.061950684,-0.71875,-6.1875,-0.578125
1696292822528,-0.16601562,-0.9902954,0.10321045,-3.703125,-3.625,-2.84375
1696292822575,-0.16210938,-0.9265747,0.13079834,0.71875,-1.125,0.9375
1696292822622,-0.16748047,-1.0130005,0.10467529,-2.390625,0.953125,1.84375
1696292822649,-0.13305664,-0.99884033,0.101989746,0.296875,0.109375,0.734375
1696292822695,-0.17041016,-0.99224854,0.10858154,2.171875,1.0,-0.0625
1696292822756,-0.15722656,-1.0110474,0.15252686,0.578125,0.828125,-0.40625
1696292822769,-0.14233398,-0.95635986,0.10028076,-0.109375,3.5,-1.28125
1696292822817,-0.1965332,-0.98272705,0.16912842,0.96875,1.140625,2.375
1696292822844,-0.16748047,-0.9939575,0.08441162,-1.328125,-0.125,0.40625
1696292822890,-0.11816406,-0.97076416,0.11883545,0.953125,1.3125,0.515625
1696292822935,-0.17285156,-0.99420166,0.1293335,0.578125,0.3125,3.6875
1696292822964,-0.14990234,-0.9898071,0.13641357,-0.921875,1.765625,2.96875
1696292823011,-0.15136719,-0.98394775,0.15472412,-7.03125,0.53125,3.0625
1696292823039,-0.15209961,-0.98883057,0.12908936,-7.625,2.96875,-1.3125
1696292823086,-0.15039062,-0.98443604,0.13665771,-1.28125,3.46875,-0.828125
1696292823130,-0.11401367,-0.9819946,0.0021362305,4.34375,-3.6875,3.34375
1696292823159,-0.032958984,-0.9956665,-0.02960205,11.71875,-6.15625,4.0625
1696292823223,-0.010253906,-0.9553833,0.13543701,7.734375,5.140625,9.734375
1696292823236,-0.15234375,-0.9680786,0.17840576,-8.703125,1.0,-0.015625
1696292823279,-0.17919922,-1.052063,0.2020874,1.546875,2.5,3.890625
1696292823325,-0.12402344,-1.0059204,0.18597412,-3.1875,-4.671875,-1.171875
1696292823354,-0.17211914,-0.97198486,0.06878662,-9.34375,-5.6875,-1.875
1696292823400,-0.12036133,-1.0044556,0.13812256,-2.578125,-2.609375,-1.75
1696292823445,-0.111083984,-0.9505005,0.1359253,2.578125,-4.265625,0.078125
1696292823473,-0.09716797,-1.006897,0.07122803,0.859375,-1.46875,4.609375
1696292823519,-0.10449219,-1.0025024,0.081726074,3.921875,-0.453125,2.609375
1696292823550,-0.10058594,-0.9944458,0.13934326,3.84375,1.53125,2.0
1696292823596,-0.12866211,-0.987854,0.10296631,0.96875,-0.6875,3.65625
1696292823656,-0.10668945,-0.97613525,0.1149292,2.0,1.078125,3.625
1696292823669,-0.11206055,-0.9993286,0.1149292,0.8125,-0.234375,3.171875
1696292823716,-0.10107422,-0.9993286,0.0993042,-1.921875,0.703125,1.796875
1696292823744,-0.09350586,-0.98516846,0.10662842,-4.40625,2.625,1.21875
1696292823789,-0.07739258,-0.9949341,0.08270264,0.875,1.84375,3.109375
1696292823835,-0.06201172,-1.0181274,0.1083374,7.984375,-0.390625,4.203125
1696292823865,-0.06982422,-1.0081177,0.10296631,3.25,-3.75,3.21875
1696292823910,-0.08569336,-1.031311,0.036071777,1.453125,-0.421875,1.546875
1696292823955,-0.042236328,-0.96417236,0.029968262,6.921875,0.15625,3.09375
1696292823984,-0.017822266,-1.0020142,-0.059631348,6.21875,-1.484375,5.28125
1696292824030,0.009033203,-1.003479,0.10858154,11.015625,7.546875,1.171875
1696292824060,-0.1027832,-0.93951416,0.04437256,-14.65625,-1.109375,-3.0
1696292824105,-0.10864258,-1.0376587,0.1515503,3.421875,-3.90625,4.46875
1696292824150,-0.043701172,-0.9837036,0.07879639,-2.328125,-2.6875,0.90625
1696292824179,-0.0625,-1.0159302,0.038757324,-2.40625,-4.84375,0.90625
1696292824227,-0.047851562,-0.98687744,0.051940918,-1.0625,-0.90625,-1.296875
1696292824254,-0.07861328,-0.9924927,0.097351074,-0.984375,-2.296875,-0.09375
1696292824299,-0.05078125,-0.99713135,0.08538818,-1.390625,-3.359375,0.765625
1696292824345,-0.043945312,-1.0037231,0.038269043,-4.171875,-2.203125,-1.265625
1696292824374,-0.056152344,-1.0105591,0.08685303,-2.953125,0.234375,-1.875
1696292824421,-0.072265625,-0.9907837,0.08294678,-1.875,-1.15625,-0.734375
1696292824449,-0.05444336,-0.9907837,0.09197998,-2.671875,-2.140625,-0.1875
1696292824496,-0.06982422,-1.0032349,0.10028076,-2.6875,-0.8125,-1.375
1696292824540,-0.075683594,-1.000061,0.09490967,-2.0625,-2.078125,-1.328125
1696292824569,-0.08642578,-1.0288696,0.059020996,-6.40625,-2.359375,-0.5625
1696292824613,-0.052001953,-0.986145,0.029968262,-6.8125,1.421875,-1.140625
1696292824659,-0.061523438,-1.0032349,0.08807373,-4.703125,1.8125,-0.734375
1696292824689,-0.06323242,-0.97784424,0.11248779,-3.265625,0.171875,-0.71875
1696292824734,-0.064453125,-0.9771118,0.11102295,-6.21875,0.3125,-1.375
1696292824763,-0.07397461,-1.0081177,0.13787842,-3.84375,0.671875,-1.90625
1696292824810,-0.09399414,-0.99298096,0.11883545,-3.125,-2.296875,-1.171875
1696292824855,-0.083496094,-0.9795532,0.15057373,0.09375,-2.1875,-0.484375
1696292824884,-0.068847656,-0.9993286,0.12542725,-2.65625,-4.9375,-1.328125
1696292824929,-0.06298828,-0.986145,0.13153076,1.859375,-3.890625,-1.765625
1696292824959,-0.10180664,-0.9898071,0.11981201,1.46875,-2.59375,-1.59375
1696292825004,-0.084472656,-0.9949341,0.09954834,1.34375,0.625,-2.796875
1696292825049,-0.06713867,-0.9927368,-3.0517578E-4,2.1875,-4.03125,-0.734375
1696292825078,-0.060058594,-0.975647,0.16229248,1.59375,3.375,-0.046875
1696292825124,-0.13208008,-0.92926025,0.15203857,-7.53125,0.609375,-2.78125
1696292825154,-0.16479492,-1.0471802,0.15838623,-6.359375,-4.21875,0.671875
1696292825199,-0.06762695,-1.0195923,0.12860107,1.875,-2.765625,-2.921875
1696292825243,-0.1159668,-0.9573364,0.08392334,-8.28125,-5.984375,-5.1875
1696292825273,-0.0769043,-0.9890747,0.11175537,-2.234375,-1.78125,-4.265625
1696292825319,-0.104003906,-0.9968872,0.13812256,-2.78125,1.296875,-3.984375
1696292825365,-0.13549805,-1.0064087,0.1437378,-1.640625,-3.34375,-1.390625
1696292825393,-0.11376953,-0.9824829,0.124938965,-4.140625,-0.796875,-1.171875
1696292825453,-0.13378906,-0.99102783,0.11834717,-6.125,-0.78125,-4.015625
1696292825471,-0.12011719,-0.9937134,0.16497803,-4.34375,1.0625,-4.859375
1696292825513,-0.1574707,-0.98272705,0.17181396,-5.1875,-1.28125,-4.515625
1696292825559,-0.15673828,-0.9885864,0.1642456,-7.421875,-1.078125,-4.796875
1696292825590,-0.1484375,-0.98394775,0.16595459,-3.5625,0.125,-5.546875
1696292825634,-0.14453125,-0.989563,0.17889404,-7.078125,-0.625,-4.453125
1696292825664,-0.17700195,-0.97784424,0.19110107,-7.375,-0.25,-3.390625
1696292825710,-0.17871094,-0.9854126,0.18035889,-3.765625,-0.859375,-3.828125
1696292825754,-0.19970703,-1.0037231,0.20819092,-5.9375,-4.5,-3.875
1696292825783,-0.203125,-0.9763794,0.21746826,-0.140625,0.0,-6.046875
1696292825828,-0.19995117,-0.9702759,0.152771,0.171875,-0.625,-4.15625
1696292825875,-0.16918945,-0.93927,0.19915771,0.78125,-0.5,-2.484375
1696292825905,-0.21899414,-0.9690552,0.13763428,2.390625,-3.1875,1.09375
1696292825949,-0.119628906,-0.9187622,0.20501709,4.140625,1.78125,3.734375
1696292825978,-0.2121582,-0.96051025,0.19671631,-11.671875,-0.6875,-3.09375
1696292826024,-0.20092773,-0.99420166,0.23846436,-2.609375,-5.09375,1.546875
1696292826071,-0.20141602,-0.9746704,0.20184326,-4.015625,-0.375,-2.34375
1696292826099,-0.21948242,-0.98760986,0.15692139,-3.90625,-1.03125,-2.890625
1696292826145,-0.18237305,-0.97491455,0.22528076,-3.828125,-0.609375,-3.5625
1696292826174,-0.22827148,-0.9282837,0.22381592,-5.0,2.0,-4.046875
1696292826218,-0.19335938,-0.95758057,0.24945068,-3.390625,-2.734375,-1.921875
1696292826264,-0.18823242,-0.94244385,0.2243042,-5.484375,0.25,-2.859375
1696292826295,-0.23291016,-0.96954346,0.24481201,-5.921875,-0.09375,-2.0
1696292826341,-0.22558594,-0.960022,0.2538452,-5.28125,-0.09375,-2.375
1696292826369,-0.24047852,-0.9378052,0.28094482,-2.390625,1.0,-1.65625
1696292826415,-0.23828125,-0.9326782,0.25360107,-4.265625,-2.90625,-0.59375
1696292826460,-0.21826172,-0.97540283,0.27630615,-2.46875,-2.828125,-0.140625
1696292826489,-0.25219727,-0.9768677,0.2880249,-0.609375,-3.515625,-0.84375
1696292826535,-0.2607422,-0.96343994,0.29559326,2.046875,-0.875,-2.484375
1696292826579,-0.2685547,-0.96832275,0.27386475,5.0625,3.046875,-0.3125
1696292826611,-0.22705078,-0.9783325,0.18475342,6.40625,14.015625,-3.203125
1696292826653,-0.21264648,-1.0112915,0.105895996,16.28125,38.84375,-7.125
1696292826684,-0.203125,-0.90582275,0.25091553,23.171875,11.46875,8.40625
1696292826730,-0.18725586,-0.8596802,0.19012451,10.296875,-16.671875,4.546875
1696292826774,-0.14941406,-0.9043579,0.105163574,0.84375,-31.90625,10.25
1696292826805,-0.125,-0.94610596,0.13861084,-0.828125,-2.03125,6.765625
1696292826849,-0.27172852,-0.9998169,0.22039795,-12.453125,-15.59375,3.140625
1696292826880,-0.14257812,-1.1074829,0.22064209,1.140625,7.78125,-0.890625
1696292826925,-0.23876953,-0.98223877,0.22210693,-8.6875,-4.109375,-4.78125
1696292826969,-0.15161133,-0.93707275,0.16864014,-3.25,-2.015625,-1.84375
1696292827016,-0.25634766,-0.96759033,0.19476318,-4.71875,-3.59375,-0.96875
1696292827046,-0.20092773,-0.9380493,0.19476318,-2.859375,-2.953125,-1.78125
1696292827074,-0.19750977,-0.9685669,0.2387085,-1.421875,-2.328125,1.140625
1696292827118,-0.25830078,-0.97198486,0.2020874,-0.921875,-3.015625,1.984375
1696292827165,-0.1809082,-1.0032349,0.19256592,-4.4375,-0.6875,-4.015625
1696292827194,-0.19873047,-0.942688,0.2098999,-5.453125,-3.078125,1.28125
1696292827239,-0.21313477,-0.95977783,0.24481201,0.328125,-0.53125,0.359375
1696292827284,-0.23657227,-0.96466064,0.22845459,1.5625,-1.578125,6.234375
1696292827314,-0.1977539,-0.9834595,0.18841553,-0.5,-1.6875,0.484375
1696292827359,-0.16918945,-0.9885864,0.22332764,1.078125,1.375,3.0625
1696292827389,-0.2397461,-0.9446411,0.22406006,-0.578125,-0.625,3.296875
1696292827434,-0.20922852,-0.9793091,0.23675537,5.96875,0.6875,4.90625
1696292827479,-0.20117188,-0.9627075,0.17596436,4.3125,0.609375,5.640625
1696292827509,-0.14086914,-1.0061646,0.19232178,0.234375,2.1875,1.921875
1696292827557,-0.18188477,-0.9795532,0.2111206,2.078125,2.5625,4.25
1696292827584,-0.1809082,-0.9817505,0.2230835,2.375,4.71875,5.84375
1696292827629,-0.17138672,-1.0032349,0.19720459,4.21875,1.0625,4.421875
1696292827675,-0.14794922,-0.98516846,0.15130615,0.65625,-0.921875,3.34375
1696292827704,-0.14819336,-0.9495239,0.14691162,1.78125,-0.890625,2.40625
1696292827766,-0.11328125,-0.9729614,0.21038818,3.71875,1.109375,2.140625
1696292827780,-0.13696289,-0.96832275,0.16229248,0.09375,-1.484375,3.109375
1696292827824,-0.14575195,-1.0061646,0.22161865,2.640625,-0.25,2.34375
1696292827870,-0.20019531,-1.0005493,0.21136475,0.90625,2.09375,3.734375
1696292827900,-0.13598633,-0.975647,0.19207764,3.203125,-2.3125,3.515625
1696292827944,-0.14282227,-0.9595337,0.24798584,8.0,-1.984375,6.0625
1696292827989,-0.23168945,-1.0130005,0.18597412,9.140625,-1.421875,6.578125
1696292828020,-0.095214844,-1.0132446,0.10614014,5.03125,-5.796875,2.203125
1696292828065,-0.0859375,-1.0210571,0.10687256,9.109375,-7.046875,6.546875
1696292828094,-0.103759766,-0.9793091,0.06976318,8.09375,-8.265625,5.984375
1696292828141,-0.061035156,-1.0239868,0.027282715,16.15625,-5.125,11.546875
1696292828184,-0.040771484,-1.0125122,-0.13043213,1.78125,5.078125,12.734375
1696292828214,0.091796875,-0.9541626,-0.11578369,-28.296875,14.5,4.734375
1696292828258,-0.10546875,-1.0444946,0.26287842,-12.671875,-0.46875,-8.515625
1696292828288,-0.061279297,-0.93634033,0.12200928,-2.40625,1.328125,-1.015625
1696292828337,-0.07324219,-0.9834595,0.17962646,-6.96875,-5.75,-7.109375
1696292828380,0.016845703,-1.0796509,0.09246826,-6.625,-5.21875,-2.375
1696292828425,-0.19995117,-0.98687744,0.20233154,2.53125,-3.390625,-2.6875
1696292828453,-0.07519531,-0.9546509,0.13909912,-0.8125,-1.59375,-1.21875
1696292828499,-0.12231445,-1.0046997,0.12835693,-4.703125,-3.140625,-0.328125
1696292828530,-0.08618164,-0.97442627,0.10858154,-3.84375,-1.34375,-4.296875
1696292828576,-0.12963867,-0.9939575,0.14422607,-4.90625,-2.65625,-3.0
1696292828607,-0.1274414,-1.0117798,0.13201904,-2.671875,-2.203125,-2.875
1696292828649,-0.07128906,-0.9937134,0.14178467,-3.0,-1.140625,-3.59375
1696292828694,-0.13134766,-0.95098877,0.12640381,-2.265625,-0.828125,-0.1875
1696292828742,-0.08862305,-1.0122681,0.16229248,-4.546875,0.1875,-1.625
1696292828769,-0.13842773,-0.991272,0.15228271,-3.171875,-1.96875,-0.921875
1696292828804,-0.123046875,-0.9771118,0.14837646,-3.28125,-2.640625,-2.140625
1696292828846,-0.14428711,-0.9961548,0.19500732,1.109375,0.359375,-0.75
1696292828890,-0.13134766,-0.99053955,0.168396,-1.296875,-1.96875,-3.984375
1696292828918,-0.08544922,-0.9788208,0.16351318,-4.09375,0.1875,-4.0
1696292828980,-0.14501953,-0.9746704,0.22503662,-1.109375,-0.25,-2.25
1696292828994,-0.19946289,-1.0254517,0.24432373,5.234375,-2.125,-1.1875
1696292829040,-0.18969727,-1.0386353,0.23162842,4.125,-8.859375,-3.484375
1696292829085,-0.20092773,-0.92755127,0.16375732,12.515625,-4.3125,-0.125
1696292829113,-0.1484375,-0.9558716,0.1071167,2.828125,-0.984375,-3.5
1696292829158,-0.15600586,-0.9692993,0.0914917,5.796875,-0.640625,2.015625
1696292829204,-0.11206055,-0.97613525,0.046325684,1.515625,-1.640625,2.21875
1696292829234,-0.046875,-1.0505981,-0.08502197,12.875,1.78125,2.1875
1696292829281,0.017578125,-0.93829346,-0.12750244,-7.015625,-0.265625,0.953125
1696292829309,-0.07421875,-0.91363525,0.22650146,-7.984375,12.96875,2.453125
1696292829355,-0.3779297,-1.098938,0.26556396,2.40625,2.53125,5.28125
1696292829400,-0.11401367,-1.0601196,0.19915771,-12.21875,-7.703125,-9.546875
1696292829431,-0.07714844,-0.91973877,0.074401855,-3.625,-5.625,-4.890625
1696292829474,-0.16577148,-0.95806885,0.11029053,-10.109375,-5.234375,-5.671875
1696292829504,-0.1550293,-0.96295166,0.19403076,-5.671875,-2.484375,-4.625
1696292829552,-0.22265625,-1.0066528,0.1984253,-0.671875,-1.640625,0.4375
1696292829595,-0.15014648,-1.0056763,0.105407715,-1.484375,-3.4375,-1.078125
1696292829624,-0.11401367,-0.9561157,0.13226318,-0.625,0.953125,-2.3125
1696292829669,-0.15893555,-0.96588135,0.14178467,-4.109375,-1.34375,-0.28125
1696292829700,-0.19042969,-0.99542236,0.14471436,-3.578125,-4.03125,-0.140625
1696292829744,-0.17944336,-0.9678345,0.17156982,-3.359375,0.453125,-2.25
1696292829807,-0.15893555,-0.98565674,0.16107178,-4.890625,-1.296875,-3.046875
1696292829819,-0.16674805,-0.9692993,0.17254639,-5.796875,-3.59375,-0.734375
1696292829865,-0.18041992,-0.96832275,0.19158936,-3.265625,-1.21875,-0.515625
1696292829910,-0.24609375,-0.98809814,0.2567749,4.796875,0.640625,1.484375
1696292829941,-0.19995117,-0.9939575,0.19134521,-0.5625,-0.671875,0.40625
1696292829987,-0.15429688,-0.9668579,0.21356201,-0.625,-1.546875,-0.046875
1696292830013,-0.19433594,-0.96881104,0.17962646,-1.234375,-2.90625,1.6875
1696292830062,-0.19726562,-1.0078735,0.15667725,2.375,-3.609375,0.75
1696292830105,-0.122558594,-0.97003174,0.13153076,7.703125,-2.53125,-0.15625
1696292830134,-0.09326172,-0.96954346,0.01751709,8.03125,0.359375,4.34375
1696292830181,-0.068603516,-0.99664307,-0.06793213,3.5,6.5,3.625
1696292830209,-0.043701172,-0.8381958,0.2789917,-8.1875,6.046875,5.328125
1696292830257,-0.3647461,-1.0857544,0.3361206,-9.578125,6.5,9.0625
1696292830300,-0.32495117,-1.0772095,0.37200928,5.328125,-9.28125,3.171875
1696292830329,0.009277344,-0.93707275,0.11810303,2.171875,-10.046875,-3.546875
1696292830375,-0.10644531,-0.9155884,-0.023498535,-14.140625,-8.734375,-1.25
1696292830405,-0.13134766,-1.0230103,0.17108154,-2.15625,-2.859375,-0.390625
1696292830450,-0.16748047,-1.0059204,0.19500732,-1.34375,0.359375,3.078125
1696292830495,-0.19018555,-1.0547485,0.14837646,-2.65625,-4.640625,1.96875
1696292830525,-0.053710938,-0.9180298,0.17254639,4.46875,0.109375,1.21875
1696292830570,-0.16357422,-0.9546509,0.062438965,-10.8125,-3.390625,1.5625
1696292830616,-0.14648438,-1.0032349,0.26507568,0.640625,4.0625,1.0
1696292830644,-0.2055664,-1.022522,0.19158936,2.359375,-2.984375,3.203125
1696292830689,-0.09667969,-0.9841919,0.124694824,-4.03125,-3.34375,0.03125
1696292830719,-0.10644531,-0.93585205,0.12542725,-0.078125,1.234375,-0.578125
1696292830765,-0.10473633,-0.9397583,0.1876831,2.84375,0.5625,1.828125
1696292830811,-0.1772461,-0.9849243,0.1593628,6.609375,3.59375,5.796875
1696292830839,-0.1418457,-1.0073853,0.23602295,13.734375,3.15625,6.984375
1696292830887,-0.19091797,-1.0071411,0.23577881,1.5,-1.5,3.453125
1696292830913,-0.19482422,-1.0027466,0.15203857,0.703125,1.3125,3.546875
1696292830960,-0.07373047,-0.9846802,0.12322998,13.46875,2.421875,5.984375
1696292831006,-0.11987305,-0.991272,0.14715576,8.265625,2.25,5.53125
1696292831034,-0.12231445,-1.0325317,0.16326904,16.53125,9.875,9.25
1696292831079,-0.103027344,-1.0396118,0.08734131,8.5625,4.890625,8.796875
1696292831125,-0.060302734,-0.9170532,0.036071777,3.921875,-4.8125,6.703125
1696292831154,-0.032226562,-0.97979736,0.011413574,3.03125,-1.25,3.796875
1696292831199,-0.03100586,-0.96539307,0.028015137,7.140625,-4.71875,0.640625
1696292831228,0.05419922,-1.0667114,-0.175354,5.5625,-3.375,3.828125
1696292831273,0.12036133,-0.9768677,-0.120910645,12.765625,16.8125,-2.09375
1696292831320,0.017089844,-0.8213501,0.08343506,-26.65625,7.921875,-5.40625
1696292831349,-0.26367188,-1.0681763,0.2736206,-4.9375,6.890625,-3.90625
1696292831396,-0.04638672,-1.0379028,0.16253662,-8.375,-9.046875,-6.125
1696292831425,-0.052978516,-0.9915161,0.032165527,-7.578125,-7.5625,-7.78125
1696292831470,-0.09375,-1.0418091,0.047302246,-11.09375,-7.59375,-4.5
1696292831514,-0.11352539,-0.94000244,0.15179443,-5.359375,-3.546875,-7.328125
1696292831544,-0.13867188,-0.9673462,0.13201904,-2.828125,-1.078125,-0.53125
1696292831590,-0.078125,-1.0200806,0.11468506,1.78125,-1.828125,-1.21875
1696292831619,-0.07788086,-1.0159302,0.085876465,-0.953125,-3.859375,-3.328125
1696292831664,-0.12719727,-0.97125244,0.046081543,-12.15625,-9.3125,-4.28125
1696292831711,-0.114746094,-0.97369385,0.19403076,-1.34375,0.0,-3.296875
1696292831741,-0.21679688,-0.9495239,0.07171631,-2.359375,1.1875,2.59375
1696292831786,-0.051513672,-1.0254517,0.14520264,-5.515625,0.90625,-1.921875
1696292831860,-0.15649414,-1.0264282,0.16278076,-1.4375,0.421875,-3.1875
1696292831865,-0.16235352,-0.9783325,0.18426514,-2.0625,-1.25,-0.546875
1696292831905,-0.111083984,-0.9673462,0.18499756,1.265625,0.25,0.859375
1696292831935,-0.14453125,-0.97369385,0.15716553,-2.6875,-5.71875,2.96875
1696292831979,-0.1105957,-1.024231,0.15496826,-1.4375,-5.0625,3.75
1696292832027,-0.16040039,-1.0005493,0.12371826,-1.3125,-4.40625,3.03125
1696292832054,-0.11254883,-0.97247314,0.1161499,1.640625,-5.328125,2.09375
1696292832101,-0.0871582,-0.9495239,0.11004639,2.3125,1.453125,1.25
1696292832129,-0.08544922,-1.0264282,0.09173584,-2.546875,-3.96875,0.71875
1696292832174,-0.07446289,-0.99420166,0.10076904,0.4375,2.296875,-0.65625
1696292832221,-0.12475586,-0.96759033,0.15179443,0.5625,3.28125,0.46875
1696292832250,-0.13476562,-0.99346924,0.13031006,0.90625,4.046875,0.53125
1696292832297,-0.11425781,-1.0252075,0.19500732,0.515625,0.90625,0.0625
1696292832325,-0.12841797,-0.99346924,0.17401123,-0.6875,1.140625,-2.375
1696292832370,-0.114746094,-1.0176392,0.22064209,6.375,3.46875,0.0
1696292832415,-0.1352539,-0.97198486,0.16473389,11.328125,5.421875,6.0625
1696292832446,-0.15771484,-0.98150635,0.11639404,1.75,4.46875,3.8125
1696292832490,-0.025634766,-0.9793091,0.05316162,2.015625,-4.9375,-0.453125
1696292832567,-0.08911133,-1.0254517,0.05999756,5.9375,-4.9375,0.171875
1696292832572,-0.122558594,-1.0012817,0.051208496,7.796875,-4.78125,0.484375
1696292832611,-0.053222656,-1.0105591,0.03753662,12.265625,10.171875,-1.25
1696292832639,-0.12988281,-0.9859009,0.07611084,7.640625,5.09375,3.140625
1696292832684,-0.10229492,-0.9805298,0.0289917,-3.46875,4.0,-4.515625
1696292832729,-0.07324219,-1.0151978,0.07098389,-7.609375,-0.71875,-5.328125
1696292832759,-0.12915039,-0.9939575,0.062438965,-6.015625,0.78125,-6.5
1696292832806,-0.076660156,-1.0232544,0.05706787,-6.40625,-0.875,-5.46875
1696292832834,-0.061279297,-0.9714966,0.06463623,-6.234375,-2.578125,-7.546875
1696292832880,-0.11376953,-0.9627075,0.12884521,-4.40625,-2.765625,-5.859375
1696292832926,-0.12109375,-0.98931885,0.019470215,-10.890625,-10.390625,-6.34375
1696292832954,-0.08496094,-0.9783325,0.0033569336,-6.578125,-1.421875,-5.34375
1696292833001,-0.09716797,-0.9356079,0.046569824,-3.3125,1.125,-3.25
1696292833029,-0.19897461,-0.88409424,0.11541748,-18.90625,-10.359375,-2.546875
1696292833075,-0.20288086,-0.9380493,0.2904663,-16.359375,7.171875,-10.75
1696292833122,-0.34301758,-0.9993286,0.25750732,-5.34375,-1.46875,3.1875
1696292833150,-0.24291992,-1.0447388,0.18817139,-7.3125,-4.0625,-5.984375
1696292833196,-0.1616211,-1.0471802,0.16326904,-10.203125,-2.0,-3.984375
1696292833239,-0.2475586,-0.88067627,0.2218628,-5.34375,-1.703125,-5.78125
1696292833269,-0.21435547,-0.9529419,0.22601318,-6.140625,0.515625,-0.65625
1696292833316,-0.2121582,-0.9331665,0.20355225,-7.21875,-1.125,-2.984375
1696292833343,-0.16064453,-1.0083618,0.22528076,-4.71875,-0.625,-2.078125
1696292833390,-0.22509766,-0.98150635,0.20843506,-5.125,-2.265625,-1.4375
1696292833435,-0.21362305,-0.95684814,0.24871826,-2.984375,-2.5625,-0.25
1696292833464,-0.21533203,-0.9246216,0.24090576,0.546875,-0.484375,2.265625
1696292833510,-0.22875977,-0.96343994,0.20843506,-0.09375,1.765625,1.5625
1696292833539,-0.203125,-0.98809814,0.2609253,3.296875,2.640625,-0.90625
1696292833586,-0.23339844,-0.9517212,0.24871826,2.484375,4.875,0.890625
1696292833631,-0.22924805,-0.93414307,0.24481201,-0.46875,2.9375,1.9375
1696292833661,-0.234375,-0.98443604,0.2645874,0.09375,-3.859375,5.953125
1696292833704,-0.22070312,-1.0198364,0.21478271,7.078125,-1.875,4.203125
1696292833749,-0.16088867,-0.96710205,0.17034912,8.203125,-3.828125,1.234375
1696292833780,-0.078125,-0.98443604,0.03338623,3.578125,-4.109375,3.0625
1696292833827,-0.08862305,-0.9932251,0.082458496,2.125,-0.390625,-3.046875
1696292833854,-0.1977539,-0.848938,0.230896,3.546875,2.140625,2.6875
1696292833902,-0.23120117,-1.0215454,0.20037842,-0.4375,3.328125,5.234375
1696292833944,-0.18652344,-1.0886841,0.29266357,6.453125,-3.109375,1.890625
1696292833974,-0.20410156,-0.92852783,0.14398193,4.5625,-5.078125,6.234375
1696292834021,-0.23095703,-0.960022,0.14007568,2.875,-2.421875,1.84375
1696292834097,-0.123046875,-0.93756104,0.13616943,-2.796875,-3.03125,0.046875
1696292834100,-0.1875,-0.96051025,0.21600342,-2.625,1.703125,2.765625
1696292834139,-0.2109375,-1.0413208,0.1762085,4.53125,-1.109375,6.4375
1696292834169,-0.091308594,-0.9924927,0.13787842,5.46875,0.5625,3.15625
1696292834216,-0.1459961,-0.97540283,0.11566162,3.109375,2.578125,3.953125
1696292834244,-0.14624023,-0.9944458,0.14105225,3.0625,1.59375,4.109375
1696292834289,-0.12841797,-0.9920044,0.15008545,4.453125,0.984375,2.671875
1696292834335,-0.119140625,-0.97613525,0.14447021,5.84375,0.921875,2.8125
1696292834365,-0.12597656,-0.98272705,0.09075928,-0.84375,-0.4375,2.3125
1696292834409,-0.12475586,-1.0088501,0.11590576,-0.078125,0.21875,1.46875
1696292834455,-0.15478516,-0.9729614,0.15106201,5.03125,-0.5625,4.09375
1696292834484,-0.15014648,-1.0081177,0.15618896,4.390625,-0.796875,5.953125
1696292834530,-0.13647461,-1.0005493,0.07684326,1.4375,1.359375,3.515625
1696292834559,-0.09326172,-1.0232544,0.09588623,2.796875,2.546875,4.03125
1696292834606,-0.071777344,-0.9849243,0.06976318,-2.0,-0.625,-0.21875
1696292834650,-0.06640625,-0.95196533,0.10858154,-1.6875,-0.609375,-1.734375
1696292834678,-0.09741211,-0.9883423,0.09954834,0.890625,-1.484375,1.4375
1696292834726,-0.07836914,-1.0154419,0.10028076,0.125,-3.609375,3.640625
1696292834754,-0.110839844,-1.0335083,0.117370605,-0.765625,-5.546875,2.515625
1696292834799,-0.110839844,-0.98760986,0.12689209,-4.8125,-11.09375,0.921875
1696292834845,-0.09472656,-0.975647,0.098083496,-3.765625,-7.71875,-2.40625
1696292834874,-0.11206055,-1.0098267,0.070007324,-1.578125,-0.171875,-2.8125
1696292834922,-0.09643555,-0.986145,0.11834717,4.375,-4.5625,-3.96875
1696292834950,-0.13452148,-0.98760986,0.08050537,-1.109375,-4.8125,-1.640625
1696292834995,-0.0625,-1.0090942,0.042663574,4.453125,-2.046875,0.6875
1696292835040,-0.06298828,-0.989563,-0.030578613,7.1875,-1.546875,1.703125
1696292835069,0.091796875,-0.9927368,-0.035949707,4.03125,11.40625,-2.125
1696292835116,-0.100097656,-0.7971802,0.2555542,-5.875,6.46875,6.359375
1696292835160,-0.28442383,-1.0667114,0.22503662,-9.296875,5.21875,-2.171875
1696292835190,-0.088134766,-1.1216431,0.1437378,-14.875,-5.671875,-3.203125
1696292835239,-0.080322266,-0.9578247,0.1293335,-6.21875,-6.3125,-7.765625
1696292835264,-0.1743164,-0.96343994,0.14251709,-7.375,-3.484375,-3.046875
1696292835309,-0.15161133,-0.94415283,0.15447998,-6.4375,-1.515625,-5.34375
1696292835355,-0.13916016,-0.9734497,0.17596436,-6.375,-0.6875,-1.328125
1696292835386,-0.15966797,-1.0269165,0.15740967,-3.71875,-4.34375,-2.53125
1696292835430,-0.13256836,-0.98760986,0.1552124,-4.9375,-1.8125,-4.1875
1696292835459,-0.1472168,-0.95928955,0.16668701,-3.0,0.171875,-3.859375
1696292835505,-0.13793945,-0.98101807,0.16131592,-3.90625,-0.734375,-1.171875
1696292835549,-0.1328125,-1.0061646,0.16107178,-2.78125,-0.203125,0.15625
1696292835579,-0.1640625,-0.98931885,0.13397217,-6.109375,2.421875,-0.109375
1696292835625,-0.13061523,-0.9651489,0.21844482,-7.828125,4.546875,-5.046875
1696292835654,-0.15991211,-0.9890747,0.24822998,-2.546875,0.484375,-0.546875
1696292835699,-0.16821289,-0.97369385,0.16326904,-8.0625,-1.6875,-3.875
1696292835746,-0.1459961,-0.96588135,0.24017334,-0.125,4.359375,-6.0625
1696292835773,-0.19091797,-0.9326782,0.2164917,-5.453125,-0.109375,-3.53125
1696292835821,-0.20410156,-0.9849243,0.22723389,-1.859375,2.703125,-2.546875
1696292835866,-0.17626953,-0.99884033,0.14520264,-5.390625,4.390625,-2.5625
1696292835894,-0.18066406,-0.97784424,0.20379639,-2.09375,3.03125,-4.8125
1696292835941,-0.1640625,-0.93756104,0.2772827,-3.625,7.234375,-5.375
1696292835970,-0.19555664,-0.958313,0.2662964,-6.484375,1.875,-5.78125
1696292836014,-0.1652832,-0.94122314,0.22821045,-4.890625,-0.953125,-6.40625
1696292836076,-0.17675781,-0.9915161,0.18426514,-6.515625,-4.015625,-4.3125
1696292836090,-0.19848633,-0.89971924,0.3102417,-2.046875,-2.390625,-5.234375
1696292836137,-0.26293945,-0.9216919,0.28851318,-5.0625,-1.9375,-0.96875
1696292836164,-0.23779297,-0.96832275,0.3012085,-1.5,-2.171875,-1.8125
1696292836210,-0.2631836,-0.94073486,0.31463623,-0.140625,-3.671875,-1.390625
1696292836254,-0.28149414,-0.95391846,0.32684326,-0.671875,-3.0,-2.015625
1696292836285,-0.22314453,-0.9595337,0.3078003,-0.0625,-1.59375,-1.484375
1696292836331,-0.2668457,-0.9402466,0.3048706,2.9375,-5.34375,-0.53125
1696292836374,-0.23901367,-0.95513916,0.2555542,6.578125,-3.359375,4.34375
1696292836404,-0.24072266,-0.9512329,0.23236084,9.40625,2.5,5.09375
1696292836466,-0.24853516,-0.942688,0.22161865,5.6875,-3.53125,4.9375
1696292836479,-0.19506836,-0.954895,0.1774292,4.4375,-0.484375,3.640625
1696292836524,-0.17626953,-1.0154419,0.15838623,5.671875,4.921875,1.546875
1696292836570,-0.09008789,-0.89508057,0.15985107,-35.609375,-23.9375,-8.109375
1696292836600,-0.24560547,-0.8740845,0.36102295,-15.734375,-10.8125,-6.453125
1696292836645,-0.36865234,-0.9470825,0.33294678,-10.625,3.921875,-0.140625
1696292836675,-0.20458984,-1.0789185,0.26800537,2.34375,-4.953125,-2.0
1696292836719,-0.2019043,-0.95684814,0.2597046,9.46875,-1.390625,9.140625
1696292836767,-0.3425293,-0.83795166,0.28729248,3.171875,4.84375,6.296875
1696292836795,-0.26464844,-0.9663696,0.31976318,4.296875,3.765625,8.109375
1696292836839,-0.19140625,-0.9915161,0.20648193,1.296875,-2.859375,6.421875
1696292836869,-0.1928711,-0.92266846,0.25726318,4.96875,2.03125,3.953125
1696292836915,-0.21362305,-0.972229,0.19891357,-1.65625,-1.65625,5.078125
1696292836962,-0.11303711,-0.9898071,0.27801514,6.515625,-0.796875,5.359375
1696292836990,-0.16333008,-0.91900635,0.21185303,5.140625,-2.0625,7.4375
1696292837035,-0.19995117,-0.9902954,0.24383545,-0.515625,-5.75,6.15625
1696292837081,-0.17993164,-1.0032349,0.25994873,3.75,-1.296875,4.890625
1696292837113,-0.16992188,-0.95025635,0.21942139,5.625,0.0,5.0625
1696292837155,-0.12597656,-0.96539307,0.21038818,3.609375,1.578125,3.53125
1696292837184,-0.119384766,-0.97198486,0.22576904,7.0625,3.546875,2.796875
1696292837232,-0.1459961,-1.019104,0.184021,2.140625,0.28125,5.390625
1696292837276,-0.17114258,-1.0352173,0.21185303,6.0625,4.46875,4.59375
1696292837305,-0.16992188,-0.9524536,0.21966553,7.9375,5.78125,5.5625
1696292837349,-0.12109375,-0.9624634,0.21868896,9.984375,2.34375,5.140625
1696292837380,-0.13916016,-0.9898071,0.19451904,7.375,0.96875,6.25
1696292837425,-0.1003418,-0.97491455,0.14300537,3.0,-2.640625,3.765625
1696292837469,-0.029052734,-0.9644165,0.14666748,2.75,-11.453125,0.03125
1696292837499,-0.030761719,-1.0855103,-0.038146973,-0.65625,-2.78125,-0.546875
1696292837545,0.037841797,-0.9859009,0.007019043,-1.328125,-1.25,-3.453125
1696292837574,-0.013427734,-0.895813,0.17425537,-12.328125,-4.390625,-2.234375
1696292837621,-0.26904297,-0.97906494,0.27972412,-0.890625,-1.078125,-1.484375
1696292837664,-0.1640625,-1.0525513,0.19818115,-5.09375,-8.25,-0.734375
1696292837694,-0.107421875,-0.98931885,0.1305542,-2.765625,-3.140625,-2.640625
1696292837741,-0.14501953,-0.91607666,0.17254639,-2.765625,-3.453125,-1.671875
1696292837784,-0.14111328,-1.0149536,0.1876831,1.375,-1.78125,1.125
1696292837814,-0.087890625,-0.9741821,0.20281982,-0.5,0.046875,-2.296875
1696292837859,-0.15332031,-0.99102783,0.19769287,-2.59375,0.46875,-1.671875
1696292837890,-0.13745117,-1.0142212,0.20452881,4.125,1.328125,1.640625
1696292837936,-0.12792969,-0.96466064,0.16326904,1.96875,1.171875,2.328125
1696292837995,-0.11254883,-0.99591064,0.15789795,2.59375,1.71875,0.78125
1696292838009,-0.09667969,-0.98223877,0.15570068,4.5625,2.921875,-0.046875
1696292838054,-0.123046875,-0.97735596,0.13909912,4.578125,1.28125,0.640625
1696292838084,-0.14160156,-0.99005127,0.16082764,5.078125,2.625,3.78125
1696292838131,-0.14233398,-1.0283813,0.1395874,5.390625,7.390625,3.0
1696292838175,-0.08935547,-0.99176025,0.13983154,3.1875,4.8125,2.734375
1696292838203,-0.12475586,-0.9639282,0.17523193,2.25,0.171875,2.390625
1696292838249,-0.10180664,-1.005188,0.1359253,1.21875,-3.390625,2.03125
1696292838279,-0.07348633,-1.0154419,0.09442139,-0.21875,-5.0,-1.203125
1696292838326,-0.07324219,-1.0025024,0.10467529,-2.0,-7.984375,-2.03125
1696292838369,-0.09838867,-1.0198364,9.1552734E-4,-0.203125,-8.65625,-0.5
1696292838400,0.049072266,-1.0386353,-0.105773926,4.71875,11.203125,-7.015625
1696292838444,-0.07885742,-0.9085083,0.23187256,5.9375,0.453125,1.375
1696292838490,-0.17797852,-0.93634033,0.11395264,-14.25,5.71875,-9.609375
1696292838519,-0.17163086,-1.0130005,0.18890381,-2.875,-3.515625,-0.109375
1696292838567,-0.12646484,-1.0298462,0.23358154,4.15625,-4.328125,-1.453125
1696292838595,-0.15283203,-0.9961548,0.066833496,-5.890625,-4.265625,-2.25
1696292838641,-0.16992188,-0.97320557,0.13934326,-5.171875,-0.3125,-3.015625
1696292838685,-0.12231445,-0.98883057,0.15008545,-1.6875,-0.09375,-2.734375
1696292838714,-0.111083984,-0.9783325,0.10614014,-5.875,-3.03125,-2.9375
1696292838759,-0.14990234,-0.97784424,0.15203857,-5.0,-1.0,-4.046875
1696292838789,-0.15332031,-1.0037231,0.16009521,-4.421875,-0.875,-3.046875
1696292838834,-0.13256836,-0.9854126,0.16619873,-3.234375,-0.140625,-2.1875
1696292838880,-0.111572266,-0.99224854,0.16522217,-6.40625,0.1875,-3.671875
1696292838909,-0.1381836,-0.9397583,0.16668701,-10.578125,-1.796875,-3.625
1696292838954,-0.20458984,-0.9661255,0.23480225,-2.484375,-3.15625,-2.0625
1696292838998,-0.21020508,-1.0357056,0.2111206,1.65625,-6.109375,-1.296875
1696292839029,-0.16357422,-0.9837036,0.19451904,3.828125,-8.40625,-2.359375
1696292839074,-0.171875,-0.9780884,0.16937256,1.703125,-6.28125,-3.265625
1696292839103,-0.22216797,-0.9717407,0.08880615,3.515625,-2.109375,0.875
1696292839149,-0.10595703,-0.9680786,0.0446167,8.765625,2.65625,4.84375
1696292839194,-0.075683594,-0.9981079,0.048034668,6.703125,9.96875,1.703125
1696292839225,-0.13745117,-0.8323364,0.26190186,-7.78125,5.25,-2.5625
1696292839268,-0.31152344,-1.0462036,0.27923584,-2.203125,-2.375,4.34375
1696292839313,-0.15063477,-1.0530396,0.23675537,-5.78125,-8.84375,-1.078125
1696292839344,-0.12231445,-0.94976807,0.06341553,-6.71875,-4.359375,-4.890625
1696292839391,-0.19604492,-0.95806885,0.12835693,-3.765625,-2.40625,-1.28125
1696292839419,-0.15014648,-0.96099854,0.13739014,-6.0625,-3.234375,-0.3125
1696292839464,-0.18164062,-1.0252075,0.18377686,2.171875,3.171875,0.875
1696292839494,-0.15771484,-0.98809814,0.16937256,2.921875,-1.390625,3.515625
1696292839540,-0.14379883,-0.9644165,0.16571045,0.3125,1.5625,-0.59375
1696292839583,-0.17456055,-0.9768677,0.1642456,1.21875,2.359375,1.234375
1696292839614,-0.19189453,-0.9649048,0.18817139,1.359375,1.34375,1.375
1696292839658,-0.2019043,-0.9746704,0.22454834,4.703125,2.234375,4.234375
1696292839703,-0.18408203,-0.98931885,0.18426514,2.875,-0.796875,2.375
1696292839740,-0.1472168,-1.0081177,0.20306396,7.625,0.515625,4.734375
1696292839779,-0.18041992,-0.9907837,0.15325928,5.5,-0.25,5.8125
1696292839809,-0.11669922,-1.0022583,0.07928467,3.71875,-5.9375,3.03125
1696292839857,-0.12207031,-1.0115356,0.10882568,4.234375,-2.59375,-0.453125
1696292839900,-0.1628418,-0.9714966,0.03387451,6.46875,-2.703125,3.921875
1696292839931,-0.036621094,-0.94854736,0.015563965,8.984375,-0.171875,6.46875
1696292839977,-0.052734375,-1.0130005,0.050720215,1.421875,5.03125,4.734375
1696292840006,-0.16967773,-0.98272705,0.109069824,-25.296875,-10.5625,1.859375
1696292840049,-0.115478516,-1.0332642,0.18817139,-3.890625,-0.796875,-0.859375
1696292840094,-0.12646484,-0.96417236,0.121032715,-1.78125,-1.296875,0.515625
1696292840125,-0.115234375,-0.9644165,0.09442139,-1.546875,-2.296875,-4.3125
1696292840170,-0.08520508,-0.9612427,0.05316162,-1.15625,-0.453125,-3.890625
1696292840200,-0.10058594,-0.9834595,0.17889404,-0.734375,0.625,-2.140625
1696292840244,-0.12963867,-1.010315,0.15740967,2.890625,-0.796875,1.5625
1696292840290,-0.14453125,-0.9898071,0.1515503,0.078125,-0.96875,1.875
1696292840319,-0.14331055,-1.0029907,0.12298584,-0.09375,1.625,-1.1875
1696292840365,-0.16088867,-0.9758911,0.12347412,-0.234375,-2.578125,0.546875
1696292840410,-0.1430664,-0.9680786,0.13275146,1.53125,0.65625,-0.984375
1696292840440,-0.12524414,-0.9692993,0.09442139,2.125,1.046875,2.0
1696292840484,-0.10961914,-1.0142212,0.09075928,-0.03125,-0.890625,2.125
1696292840514,-0.099121094,-1.0076294,0.10858154,4.40625,1.125,0.390625
1696292840560,-0.14428711,-0.9783325,0.1305542,3.5,-0.5625,2.46875
1696292840605,-0.1105957,-0.99542236,0.117614746,2.5625,0.265625,1.796875
1696292840637,-0.122802734,-0.99835205,0.12249756,5.40625,2.53125,1.65625
1696292840678,-0.12133789,-0.986145,0.09906006,2.796875,0.6875,1.46875
1696292840712,-0.107421875,-1.0054321,0.10882568,0.8125,-0.734375,0.5
1696292840754,-0.115234375,-1.0093384,0.06365967,-1.125,-6.625,2.484375
1696292840802,-0.092041016,-1.0176392,0.044128418,-0.65625,-4.640625,0.453125
1696292840830,-0.076171875,-0.99102783,0.0289917,1.46875,-1.125,1.8125
1696292840874,-0.08129883,-0.9883423,0.040222168,3.515625,0.328125,0.484375
1696292840920,-0.029541016,-1.0342407,-0.046203613,2.921875,3.5,0.265625
1696292840949,-0.045410156,-0.91192627,0.17010498,6.375,4.796875,5.328125
1696292840996,-0.16577148,-1.0071411,0.10809326,-20.390625,-2.015625,-2.34375
1696292841024,-0.103759766,-1.046936,0.12347412,-7.171875,-3.125,-0.34375
1696292841070,-0.13623047,-1.0549927,0.13446045,-2.375,-5.390625,-2.796875
1696292841116,-0.14086914,-0.9578247,0.121276855,-2.9375,-6.625,-3.421875
1696292841143,-0.107910156,-0.9492798,0.10272217,-5.34375,-1.546875,-3.453125
1696292841191,-0.063964844,-0.9993286,0.08343506,-5.953125,-1.78125,-2.234375
1696292841219,-0.11206055,-1.0046997,0.06414795,-6.390625,-0.71875,-3.25
1696292841265,-0.11230469,-1.0088501,0.1383667,-2.3125,3.359375,-3.546875
1696292841310,-0.15258789,-0.9920044,0.14007568,-3.25,1.5,-2.03125
1696292841339,-0.1496582,-0.9612427,0.14251709,-2.046875,0.890625,-1.296875
1696292841387,-0.10986328,-0.98931885,0.14569092,-2.015625,2.703125,-2.625
1696292841414,-0.1652832,-0.97857666,0.16888428,-2.875,2.296875,-3.375
1696292841462,-0.16455078,-0.99176025,0.19989014,-2.28125,2.359375,-3.625
1696292841503,-0.14477539,-0.991272,0.16375732,-7.328125,-4.4375,-4.65625
1696292841534,-0.17114258,-0.97979736,0.17718506,2.875,-5.0,-0.578125
1696292841581,-0.12084961,-0.98223877,0.14764404,-0.09375,-5.453125,0.921875
1696292841624,-0.14746094,-1.0010376,0.13348389,2.71875,-0.890625,1.421875
1696292841654,-0.16455078,-0.9690552,0.12054443,1.515625,-3.203125,0.84375
1696292841699,-0.092041016,-0.99005127,-0.007385254,2.953125,0.078125,-0.890625
1696292841730,-0.07299805,-0.94000244,0.12249756,8.4375,8.546875,0.109375
1696292841774,-0.17456055,-0.94366455,0.15179443,-16.609375,1.125,-4.5
1696292841820,-0.21411133,-1.0337524,0.19085693,-1.78125,0.984375,-3.46875
1696292841850,-0.1171875,-1.0193481,0.18890381,0.03125,-1.734375,0.609375
1696292841894,-0.1809082,-0.96710205,0.11785889,-2.859375,-5.6875,-1.6875
1696292841924,-0.1381836,-0.99713135,0.12176514,-4.203125,-1.875,-4.5625
1696292841969,-0.17944336,-0.9456177,0.18865967,-2.828125,0.9375,-4.875
1696292842015,-0.21777344,-0.98150635,0.18743896,-3.140625,-3.640625,-1.328125
1696292842043,-0.1821289,-0.9651489,0.14935303,-5.90625,-2.59375,-3.484375
1696292842092,-0.19824219,-1.0078735,0.1473999,-6.03125,-2.75,-4.875
1696292842134,-0.15942383,-0.9385376,0.19622803,-5.734375,2.015625,-3.6875
1696292842167,-0.25878906,-0.94732666,0.22113037,-2.90625,-0.6875,-1.3125
1696292842212,-0.18945312,-0.96539307,0.18304443,-4.890625,-2.0,0.515625
1696292842240,-0.21142578,-1.0076294,0.19232178,-1.21875,0.125,-1.453125
1696292842284,-0.1730957,-0.958313,0.18157959,-1.390625,-0.046875,-3.0
1696292842331,-0.19702148,-0.95513916,0.17645264,-3.765625,-1.390625,-2.765625
1696292842362,-0.17529297,-0.9224243,0.22137451,1.375,0.515625,-2.984375
1696292842406,-0.22460938,-0.96221924,0.23382568,-1.0625,-0.703125,0.765625
1696292842436,-0.25610352,-1.0298462,0.23040771,0.203125,-1.90625,1.109375
1696292842479,-0.18066406,-0.99298096,0.2423706,3.78125,0.9375,1.359375
1696292842524,-0.22680664,-0.90826416,0.19500732,0.25,-0.453125,0.96875
1696292842554,-0.2524414,-0.9812622,0.22576904,1.734375,-2.71875,3.828125
1696292842602,-0.21069336,-1.0239868,0.19012451,3.09375,-3.0,0.375
1696292842631,-0.2043457,-0.9483032,0.15057373,5.75,0.5625,-0.859375
1696292842674,-0.15771484,-0.9661255,0.05267334,9.40625,-2.375,5.09375
1696292842720,-0.107910156,-1.0029907,-0.011291504,12.5625,3.078125,7.046875
1696292842750,-0.13598633,-0.9927368,0.042419434,-2.40625,-1.234375,6.078125
1696292842794,-0.14453125,-0.9505005,0.23968506,-5.59375,10.484375,0.203125
1696292842825,-0.30004883,-1.0596313,0.2140503,-0.296875,0.609375,6.40625
1696292842871,-0.1081543,-0.97735596,0.26654053,5.890625,-2.59375,0.328125
1696292842913,-0.20214844,-0.9788208,0.12371826,-4.1875,-9.828125,-0.421875
1696292842944,-0.16723633,-0.9534302,0.14837646,-1.6875,-2.03125,1.515625
1696292843008,-0.17260742,-0.9993286,0.14129639,-0.546875,0.9375,1.0
1696292843038,-0.13867188,-0.98272705,0.13372803,1.90625,1.28125,2.6875
1696292843065,-0.13891602,-0.97979736,0.13616943,4.875,0.875,3.875
1696292843110,-0.15527344,-0.9824829,0.14544678,2.375,-1.984375,3.1875
1696292843141,-0.16040039,-0.99298096,0.15032959,3.140625,-2.203125,6.203125
1696292843184,-0.13793945,-1.0022583,0.13519287,2.90625,-1.828125,4.21875
1696292843229,-0.15234375,-0.96099854,0.13323975,4.25,-0.421875,4.046875
1696292843258,-0.11010742,-0.99542236,0.07757568,1.28125,-1.390625,3.71875
1696292843305,-0.09350586,-1.0056763,0.11224365,3.28125,0.25,1.296875
1696292843334,-0.123046875,-0.98883057,0.0993042,4.046875,1.53125,2.984375
1696292843396,-0.09350586,-0.98443604,0.094177246,4.1875,-0.296875,4.484375
1696292843424,-0.09887695,-1.003479,0.11590576,5.5,0.0,4.78125
1696292843455,-0.13769531,-1.0222778,0.0680542,4.0,-2.328125,4.421875
1696292843501,-0.104003906,-0.9824829,0.047546387,2.875,-4.015625,3.0
1696292843543,-0.103271484,-0.9883423,0.117126465,2.765625,-2.265625,2.703125
1696292843574,-0.15161133,-1.0029907,0.105895996,1.390625,-0.671875,4.03125
1696292843622,-0.10131836,-1.0315552,0.07611084,-0.796875,2.796875,3.640625
1696292843648,-0.07421875,-0.97320557,0.09539795,3.75,3.859375,5.578125
1696292843698,-0.12890625,-0.9976196,0.11932373,2.765625,-2.125,6.96875
1696292843740,-0.053466797,-1.0010376,0.07659912,1.078125,-0.3125,5.546875
1696292843769,-0.048583984,-0.9898071,0.061950684,-1.703125,-2.0,4.34375
1696292843814,-0.044433594,-1.0049438,0.07244873,-3.21875,-3.640625,2.015625
1696292843844,-0.068115234,-1.0244751,0.09588623,-5.109375,-6.609375,2.234375
1696292843889,-0.0087890625,-1.000061,0.04510498,-8.8125,-6.015625,1.96875
1696292843951,-0.009765625,-1.0320435,0.045837402,-5.390625,-3.8125,-3.171875
1696292843965,-0.013183594,-0.97320557,0.101745605,-2.96875,-8.8125,-5.59375
1696292844010,-0.08154297,-0.9990845,0.08538818,-4.53125,-9.84375,-3.59375
1696292844039,-0.080078125,-0.99346924,0.04119873,-1.125,-5.359375,-3.296875
1696292844088,-0.016357422,-0.99102783,0.050964355,-1.3125,0.203125,-6.71875
1696292844129,-0.03173828,-0.9866333,0.053649902,0.0,3.046875,-5.5
1696292844160,-0.03515625,-1.0005493,0.01776123,2.53125,0.3125,-3.25
1696292844207,-0.026855469,-0.9776001,-0.06549072,8.734375,10.34375,0.28125
1696292844249,-0.09814453,-0.9351196,0.17010498,3.1875,13.5625,2.1875
1696292844279,-0.20336914,-1.0010376,0.2526245,-1.171875,2.171875,0.125
1696292844327,-0.045654297,-1.0584106,0.13543701,-11.9375,2.078125,-2.171875
1696292844355,-0.19311523,-1.020813,0.06829834,-8.34375,-1.84375,-2.28125
1696292844400,-0.08886719,-0.9968872,0.13665771,-5.984375,5.78125,-5.71875
1696292844444,-0.11279297,-0.95880127,0.14422607,-3.59375,-0.953125,-3.015625
1696292844474,-0.11254883,-0.93951416,0.10638428,-8.15625,-4.40625,-1.484375
1696292844521,-0.07006836,-1.0132446,0.13079834,-6.796875,-0.25,-4.625
1696292844549,-0.14379883,-1.0283813,0.16009521,-3.609375,-1.125,-2.328125
1696292844596,-0.09814453,-0.9885864,0.1749878,-5.75,-0.96875,-1.859375
1696292844641,-0.10449219,-0.9697876,0.16864014,-6.40625,-1.171875,-2.03125
1696292844669,-0.119628906,-0.96661377,0.14935303,-3.890625,-1.0,-2.421875
1696292844714,-0.114746094,-0.98883057,0.16986084,-8.265625,-2.8125,-3.484375
1696292844744,-0.14477539,-0.98760986,0.17254639,-7.421875,-1.59375,-5.0625
1696292844790,-0.1262207,-0.98883057,0.19793701,-6.234375,-3.625,-3.21875
1696292844834,-0.15405273,-0.9619751,0.17401123,-5.546875,0.40625,-1.703125
1696292844864,-0.1496582,-0.9710083,0.19793701,-6.125,0.53125,-2.890625
1696292844913,-0.15307617,-0.98272705,0.17767334,-5.859375,1.296875,-4.09375
1696292844987,-0.15478516,-0.9751587,0.22601318,-1.9375,0.484375,-4.28125
1696292844990,-0.16088867,-0.98150635,0.2230835,-4.171875,2.09375,-4.203125
1696292845030,-0.16479492,-0.9534302,0.22064209,-0.875,0.265625,-3.234375
1696292845060,-0.19213867,-1.0105591,0.24676514,1.21875,-2.78125,0.796875
1696292845104,-0.15405273,-0.97784424,0.21087646,1.6875,-6.125,-2.796875
1696292845150,-0.14428711,-0.90753174,0.1696167,1.703125,-4.125,-2.171875
1696292845180,-0.2006836,-1.0020142,0.18597412,0.0,-1.5625,1.171875
1696292845225,-0.100097656,-0.9793091,0.09490967,1.375,1.15625,-0.859375
1696292845254,-0.17944336,-0.9026489,0.20379639,-12.84375,-7.953125,-1.890625
1696292845301,-0.15209961,-0.9993286,0.30511475,-0.765625,2.859375,0.640625
1696292845345,-0.2775879,-0.9602661,0.24334717,-3.03125,-3.921875,0.890625
1696292845374,-0.12670898,-0.9768677,0.21795654,-3.78125,-5.0,-0.03125
1696292845420,-0.19067383,-0.9505005,0.22283936,0.765625,-1.265625,0.5625
1696292845449,-0.20825195,-0.9456177,0.2633667,7.28125,-0.953125,5.0
1696292845495,-0.21411133,-0.9837036,0.22381592,5.59375,0.578125,6.703125
1696292845539,-0.18823242,-1.0037231,0.24456787,9.59375,-0.75,6.53125
1696292845569,-0.15600586,-0.96881104,0.19451904,10.171875,-0.046875,7.03125
1696292845615,-0.15795898,-0.9685669,0.18328857,8.859375,1.34375,6.84375
1696292845659,-0.122802734,-0.9944458,0.17108154,7.71875,1.296875,6.84375
1696292845690,-0.12109375,-0.99224854,0.14544678,7.859375,-0.9375,7.515625
1696292845737,-0.09667969,-0.99664307,0.11785889,5.1875,-1.421875,6.015625
1696292845765,-0.091796875,-1.0012817,0.12786865,6.796875,-2.3125,6.203125
1696292845809,-0.09472656,-0.9924927,0.09979248,5.296875,-1.03125,6.90625
1696292845854,-0.08618164,-0.99786377,0.11224365,6.484375,-1.0625,6.234375
