# Sensor type: Thingy
# Activity type: Lying down on left
# Activity subtype: Normal
# Subject id: s2094833
# Notes: 
timestamp,accel_x,accel_y,accel_z,gyro_x,gyro_y,gyro_z,mag_x,mag_y,mag_z
1696291581917,-0.36035156,0.8857422,0.26464844,-0.03125,0.15625,0.0625,0.0,0.0,0.0
1696291581947,-0.359375,0.8876953,0.27148438,0.21875,0.15625,0.0,0.0,0.0,0.0
1696291582010,-0.34765625,0.8857422,0.29003906,0.5625,0.21875,-0.4375,0.0,0.0,0.0
1696291582039,-0.36035156,0.8847656,0.2763672,0.09375,0.09375,-0.375,0.0,0.0,0.0
1696291582067,-0.36035156,0.8886719,0.2763672,-0.15625,-0.34375,0.125,0.0,0.0,0.0
1696291582128,-0.36132812,0.88671875,0.26464844,-0.34375,-0.40625,0.375,0.0,0.0,0.0
1696291582158,-0.35839844,0.8886719,0.26953125,-0.46875,-0.40625,0.25,0.0,0.0,0.0
1696291582190,-0.3466797,0.88378906,0.26367188,-0.40625,-0.34375,0.0,0.0,0.0,0.0
1696291582279,-0.36523438,0.88671875,0.29003906,-0.09375,-0.15625,0.0,-36.3125,2.0,-191.625
1696291582281,-0.359375,0.8857422,0.28027344,-0.03125,0.03125,0.125,0.0,0.0,0.0
1696291582308,-0.35546875,0.88378906,0.27246094,0.4375,0.625,0.25,0.0,0.0,0.0
1696291582372,-0.35058594,0.88671875,0.26757812,0.625,0.875,0.125,0.0,0.0,0.0
1696291582400,-0.35253906,0.89453125,0.26953125,0.625,0.53125,-0.5,0.0,0.0,0.0
1696291582427,-0.34472656,0.8886719,0.2548828,1.71875,0.28125,-1.03125,0.0,0.0,0.0
1696291582489,-0.36132812,0.8847656,0.2626953,1.5625,0.09375,-0.96875,0.0,0.0,0.0
1696291582517,-0.37402344,0.8857422,0.26757812,1.4375,0.09375,-0.84375,0.0,0.0,0.0
1696291582550,-0.3720703,0.8798828,0.2578125,1.0625,0.40625,-0.125,0.0,0.0,0.0
1696291582579,-0.35742188,0.8925781,0.25390625,0.4375,0.5625,0.25,0.0,0.0,0.0
1696291582640,-0.3701172,0.90722656,0.2578125,-0.15625,0.34375,0.1875,0.0,0.0,0.0
1696291582669,-0.359375,0.8955078,0.24414062,-0.78125,-0.09375,0.25,0.0,0.0,0.0
1696291582699,-0.3515625,0.89453125,0.2685547,-1.0,-0.71875,0.1875,0.0,0.0,0.0
1696291582767,-0.3642578,0.8876953,0.2783203,-1.375,-0.75,0.3125,-37.1875,3.5,-192.1875
1696291582788,-0.3564453,0.8798828,0.27539062,-0.84375,-0.53125,0.53125,0.0,0.0,0.0
1696291582822,-0.3466797,0.8876953,0.265625,-0.59375,-0.28125,0.4375,0.0,0.0,0.0
1696291582880,-0.35351562,0.8876953,0.28222656,-0.34375,-0.46875,0.0,0.0,0.0,0.0
1696291582908,-0.3671875,0.8857422,0.25195312,0.34375,0.5625,0.0,0.0,0.0,0.0
1696291582938,-0.34765625,0.8964844,0.2763672,0.5,0.9375,0.0625,0.0,0.0,0.0
1696291583003,-0.3515625,0.8955078,0.2861328,0.75,0.46875,-0.0625,0.0,0.0,0.0
1696291583027,-0.35546875,0.8925781,0.26171875,1.0625,0.28125,-0.25,0.0,0.0,0.0
1696291583059,-0.36132812,0.88183594,0.25683594,0.9375,0.40625,-0.4375,0.0,0.0,0.0
1696291583118,-0.3544922,0.8925781,0.26953125,1.0625,0.53125,-0.4375,0.0,0.0,0.0
1696291583159,-0.35742188,0.8925781,0.24609375,1.0625,0.46875,-0.3125,0.0,0.0,0.0
1696291583182,-0.35839844,0.8886719,0.2626953,1.0625,0.53125,-0.1875,0.0,0.0,0.0
1696291583238,-0.35253906,0.8925781,0.26367188,-0.09375,0.53125,0.25,0.0,0.0,0.0
1696291583272,-0.3544922,0.88671875,0.26757812,0.28125,0.21875,0.125,-36.4375,1.8125,-192.8125
1696291583298,-0.3623047,0.890625,0.24609375,0.21875,0.15625,0.0,0.0,0.0,0.0
1696291583358,-0.3486328,0.8876953,0.25878906,0.03125,-0.03125,0.0625,0.0,0.0,0.0
1696291583421,-0.36035156,0.8876953,0.25585938,-0.40625,-0.15625,0.125,0.0,0.0,0.0
1696291583423,-0.35351562,0.87890625,0.25976562,-0.03125,-0.09375,0.125,0.0,0.0,0.0
1696291583480,-0.35546875,0.88378906,0.265625,-0.09375,-0.03125,0.1875,0.0,0.0,0.0
1696291583510,-0.36328125,0.8886719,0.27441406,-0.34375,-0.34375,-0.0625,0.0,0.0,0.0
1696291583540,-0.3564453,0.8857422,0.26171875,-0.15625,0.21875,0.0,0.0,0.0,0.0
1696291583598,-0.35253906,0.8886719,0.26660156,-0.15625,0.34375,0.3125,0.0,0.0,0.0
1696291583629,-0.3515625,0.88183594,0.25683594,-0.03125,-0.15625,0.0,0.0,0.0,0.0
1696291583658,-0.35058594,0.8847656,0.26171875,0.34375,0.09375,0.0,0.0,0.0,0.0
1696291583724,-0.3642578,0.88671875,0.2685547,0.09375,-0.03125,-0.1875,0.0,0.0,0.0
1696291583749,-0.359375,0.8935547,0.2578125,0.03125,-0.09375,-0.1875,-36.75,2.75,-193.375
1696291583779,-0.36035156,0.8886719,0.26367188,0.4375,-0.09375,-0.125,0.0,0.0,0.0
1696291583839,-0.3564453,0.88378906,0.25878906,-0.03125,0.15625,0.0625,0.0,0.0,0.0
1696291583868,-0.3564453,0.8964844,0.26660156,-0.9375,-0.15625,0.125,0.0,0.0,0.0
1696291583899,-0.36132812,0.8925781,0.27441406,-0.71875,-0.75,-0.0625,0.0,0.0,0.0
1696291583960,-0.36132812,0.8779297,0.25878906,-0.59375,-0.8125,0.125,0.0,0.0,0.0
1696291583990,-0.36816406,0.890625,0.24902344,-1.1875,-0.75,-0.0625,0.0,0.0,0.0
1696291584019,-0.3671875,0.89160156,0.27246094,-0.90625,-0.53125,0.0625,0.0,0.0,0.0
1696291584084,-0.35742188,0.8935547,0.25,-1.25,-0.65625,0.1875,0.0,0.0,0.0
1696291584109,-0.35058594,0.8808594,0.2685547,-1.1875,-0.8125,0.375,0.0,0.0,0.0
1696291584139,-0.35546875,0.89160156,0.27441406,-1.4375,-1.0,0.1875,0.0,0.0,0.0
1696291584206,-0.35742188,0.88183594,0.2734375,-1.25,-0.875,0.0625,0.0,0.0,0.0
1696291584230,-0.35742188,0.8847656,0.26171875,-1.5625,-0.59375,0.25,0.0,0.0,0.0
1696291584264,-0.35546875,0.8847656,0.27148438,-1.5,-0.75,0.46875,-37.9375,0.3125,-190.6875
1696291584319,-0.3564453,0.8808594,0.2734375,-0.84375,-0.65625,0.375,0.0,0.0,0.0
1696291584348,-0.35253906,0.8886719,0.2783203,-1.0,-0.40625,0.3125,0.0,0.0,0.0
1696291584378,-0.34570312,0.87597656,0.27734375,-0.15625,-0.09375,0.0625,0.0,0.0,0.0
1696291584438,-0.35546875,0.8935547,0.2734375,0.6875,0.21875,-0.125,0.0,0.0,0.0
1696291584467,-0.36132812,0.8828125,0.2783203,0.5625,-0.15625,-0.4375,0.0,0.0,0.0
1696291584505,-0.3564453,0.88378906,0.27734375,-0.65625,-0.21875,0.0625,0.0,0.0,0.0
1696291584558,-0.359375,0.8886719,0.26660156,-0.03125,0.21875,0.375,0.0,0.0,0.0
1696291584590,-0.3515625,0.8857422,0.2685547,-0.34375,-0.09375,0.125,0.0,0.0,0.0
1696291584619,-0.35351562,0.88671875,0.25683594,-0.78125,-0.34375,0.125,0.0,0.0,0.0
1696291584680,-0.36035156,0.890625,0.2685547,-0.28125,-0.21875,0.125,0.0,0.0,0.0
1696291584712,-0.35546875,0.8779297,0.26660156,-0.46875,-0.28125,0.125,0.0,0.0,0.0
1696291584740,-0.35351562,0.8857422,0.29101562,-0.59375,-0.09375,0.3125,0.0,0.0,0.0
1696291584802,-0.3515625,0.8847656,0.2861328,-0.03125,0.09375,0.25,-36.4375,1.8125,-191.125
1696291584832,-0.35839844,0.8808594,0.2841797,-0.28125,-0.34375,0.0,0.0,0.0,0.0
1696291584859,-0.35253906,0.88183594,0.27441406,-0.78125,-0.40625,0.0625,0.0,0.0,0.0
1696291584923,-0.359375,0.8857422,0.27246094,-0.78125,-0.28125,0.25,0.0,0.0,0.0
1696291584948,-0.35058594,0.8808594,0.27441406,-0.84375,-0.46875,0.125,0.0,0.0,0.0
1696291584980,-0.35058594,0.8935547,0.27734375,-0.46875,-0.34375,0.1875,0.0,0.0,0.0
1696291585040,-0.35742188,0.8876953,0.2890625,-1.125,-0.46875,0.1875,0.0,0.0,0.0
1696291585068,-0.3671875,0.89160156,0.2861328,-1.0625,-0.46875,0.1875,0.0,0.0,0.0
1696291585100,-0.35839844,0.89160156,0.27441406,-0.21875,-0.53125,0.125,0.0,0.0,0.0
1696291585159,-0.35253906,0.88378906,0.28222656,-0.09375,-0.15625,-0.0625,0.0,0.0,0.0
1696291585190,-0.3623047,0.88671875,0.2783203,0.09375,0.15625,0.125,0.0,0.0,0.0
1696291585230,-0.34765625,0.8808594,0.27441406,-0.15625,-0.03125,0.0,0.0,0.0,0.0
1696291585281,-0.3486328,0.88671875,0.28222656,0.21875,-0.09375,-0.1875,-34.9375,1.25,-192.9375
1696291585308,-0.35742188,0.88183594,0.2685547,0.4375,0.15625,-0.125,0.0,0.0,0.0
1696291585339,-0.35839844,0.88378906,0.28515625,0.28125,0.21875,-0.125,0.0,0.0,0.0
1696291585398,-0.34960938,0.88671875,0.27539062,-0.09375,0.09375,0.0,0.0,0.0,0.0
1696291585427,-0.36035156,0.88378906,0.27539062,0.40625,0.15625,0.0625,0.0,0.0,0.0
1696291585458,-0.3466797,0.88671875,0.27929688,-0.15625,-0.09375,0.0,0.0,0.0,0.0
1696291585523,-0.36035156,0.8808594,0.2705078,-0.28125,-0.28125,-0.125,0.0,0.0,0.0
1696291585551,-0.35742188,0.8925781,0.2841797,-0.03125,-0.03125,0.0,0.0,0.0,0.0
1696291585584,-0.35351562,0.8886719,0.28320312,-0.59375,0.15625,0.4375,0.0,0.0,0.0
1696291585639,-0.3544922,0.8857422,0.28125,0.15625,-0.09375,0.1875,0.0,0.0,0.0
1696291585699,-0.35253906,0.88183594,0.27734375,-0.09375,-0.03125,0.125,0.0,0.0,0.0
1696291585703,-0.36035156,0.8769531,0.29589844,0.28125,0.21875,-0.125,0.0,0.0,0.0
1696291585765,-0.3486328,0.8808594,0.2705078,0.875,0.21875,-0.375,0.0,0.0,0.0
1696291585788,-0.36035156,0.88964844,0.2548828,1.1875,0.5625,-0.3125,-36.0,2.0,-192.375
1696291585821,-0.34765625,0.8847656,0.28222656,1.1875,0.6875,-0.375,0.0,0.0,0.0
1696291585881,-0.34570312,0.88671875,0.26660156,1.375,0.9375,-0.1875,0.0,0.0,0.0
1696291585909,-0.34765625,0.8876953,0.27148438,1.4375,0.6875,-0.3125,0.0,0.0,0.0
1696291585940,-0.35742188,0.8847656,0.27734375,1.25,0.46875,-0.5,0.0,0.0,0.0
1696291585998,-0.35351562,0.88183594,0.26953125,1.125,0.46875,-0.375,0.0,0.0,0.0
1696291586029,-0.3623047,0.88671875,0.2734375,1.0,0.5625,-0.1875,0.0,0.0,0.0
1696291586059,-0.3564453,0.8857422,0.2607422,0.5625,0.53125,-0.0625,0.0,0.0,0.0
1696291586119,-0.35546875,0.8876953,0.2783203,0.5625,0.53125,0.1875,0.0,0.0,0.0
1696291586150,-0.3623047,0.8964844,0.27148438,0.40625,0.09375,0.0,0.0,0.0,0.0
1696291586179,-0.359375,0.8769531,0.26660156,0.15625,0.34375,0.125,0.0,0.0,0.0
1696291586241,-0.3544922,0.8847656,0.26367188,0.5625,0.8125,0.4375,0.0,0.0,0.0
1696291586274,-0.36035156,0.89941406,0.27148438,0.09375,0.625,0.375,-36.4375,3.1875,-190.375
1696291586330,-0.3515625,0.88183594,0.25195312,1.0625,0.09375,0.0,0.0,0.0,0.0
1696291586359,-0.3642578,0.87890625,0.25683594,1.0,0.34375,-0.375,0.0,0.0,0.0
1696291586389,-0.3564453,0.88671875,0.26171875,1.0,0.625,-0.3125,0.0,0.0,0.0
1696291586418,-0.34960938,0.88964844,0.26464844,1.25,0.6875,-0.3125,0.0,0.0,0.0
1696291586481,-0.36523438,0.8847656,0.26757812,1.0,0.5625,-0.125,0.0,0.0,0.0
1696291586511,-0.3564453,0.8808594,0.24511719,0.8125,0.5625,0.0,0.0,0.0,0.0
1696291586540,-0.35351562,0.89453125,0.26660156,0.8125,0.6875,0.0,0.0,0.0,0.0
1696291586599,-0.3544922,0.8886719,0.2705078,1.125,0.28125,-0.3125,0.0,0.0,0.0
1696291586627,-0.36621094,0.88671875,0.27929688,1.125,0.09375,-0.0625,0.0,0.0,0.0
1696291586658,-0.3623047,0.8876953,0.24902344,0.9375,0.6875,0.25,0.0,0.0,0.0
1696291586720,-0.36035156,0.8964844,0.25390625,1.125,1.0,0.125,0.0,0.0,0.0
1696291586752,-0.36132812,0.8964844,0.26660156,0.6875,0.75,0.1875,0.0,0.0,0.0
1696291586779,-0.34960938,0.89160156,0.2421875,0.5,0.28125,-0.125,-35.375,2.4375,-192.8125
1696291586846,-0.35839844,0.8935547,0.25878906,0.34375,-0.28125,-0.3125,0.0,0.0,0.0
1696291586869,-0.35839844,0.8828125,0.25,0.21875,0.5625,-0.25,0.0,0.0,0.0
1696291586902,-0.3623047,0.88183594,0.2529297,0.21875,0.53125,0.25,0.0,0.0,0.0
1696291586962,-0.35546875,0.88671875,0.25585938,0.8125,0.09375,0.375,0.0,0.0,0.0
1696291586990,-0.36035156,0.89453125,0.26464844,-0.40625,-0.09375,0.0,0.0,0.0,0.0
1696291587022,-0.359375,0.8955078,0.24804688,-0.15625,-0.09375,-0.125,0.0,0.0,0.0
1696291587078,-0.359375,0.8935547,0.25976562,0.21875,0.03125,-0.25,0.0,0.0,0.0
1696291587110,-0.36816406,0.8925781,0.25195312,-0.28125,-0.53125,0.0,0.0,0.0,0.0
1696291587140,-0.3623047,0.8955078,0.265625,-0.90625,-0.09375,0.3125,0.0,0.0,0.0
1696291587198,-0.36035156,0.8935547,0.26171875,-0.65625,-0.53125,0.1875,0.0,0.0,0.0
1696291587232,-0.3564453,0.88964844,0.25976562,-1.0,-0.875,-0.1875,0.0,0.0,0.0
1696291587258,-0.36621094,0.8808594,0.24902344,-0.71875,-1.0625,-0.25,-36.3125,2.3125,-192.9375
1696291587319,-0.36523438,0.8808594,0.24316406,-0.71875,-0.75,-0.1875,0.0,0.0,0.0
1696291587350,-0.35351562,0.88671875,0.24902344,-0.84375,-0.59375,-0.125,0.0,0.0,0.0
1696291587380,-0.3515625,0.89746094,0.26464844,-1.4375,-0.46875,0.0625,0.0,0.0,0.0
1696291587440,-0.35546875,0.8828125,0.2548828,-1.25,-0.75,0.4375,0.0,0.0,0.0
1696291587469,-0.35839844,0.8876953,0.26171875,-1.0625,-1.1875,0.25,0.0,0.0,0.0
1696291587501,-0.36132812,0.8808594,0.27148438,-1.0,-0.875,-0.0625,0.0,0.0,0.0
1696291587561,-0.36035156,0.88671875,0.25976562,-1.5,-0.40625,-0.0625,0.0,0.0,0.0
1696291587589,-0.35546875,0.8876953,0.27148438,-0.9375,-0.53125,0.0625,0.0,0.0,0.0
1696291587620,-0.36035156,0.8857422,0.2763672,-0.46875,-0.65625,0.25,0.0,0.0,0.0
1696291587678,-0.3564453,0.88378906,0.27148438,-1.1875,-0.59375,0.3125,0.0,0.0,0.0
1696291587711,-0.35058594,0.8935547,0.25976562,-0.78125,-0.34375,0.1875,0.0,0.0,0.0
1696291587738,-0.359375,0.8779297,0.2548828,-0.40625,-0.21875,0.0,0.0,0.0,0.0
1696291587800,-0.3642578,0.890625,0.26171875,-0.46875,-0.21875,0.125,-35.875,0.625,-190.6875
1696291587831,-0.35253906,0.88671875,0.26367188,-0.59375,-0.21875,0.0625,0.0,0.0,0.0
1696291587858,-0.359375,0.87890625,0.2626953,-0.15625,-0.21875,0.1875,0.0,0.0,0.0
1696291587921,-0.359375,0.8847656,0.26464844,-0.21875,-0.09375,0.0,0.0,0.0,0.0
1696291587982,-0.36523438,0.8847656,0.27148438,0.03125,-0.03125,0.125,0.0,0.0,0.0
1696291587985,-0.35546875,0.8935547,0.2763672,-0.40625,-0.34375,0.0,0.0,0.0,0.0
1696291588040,-0.35351562,0.8886719,0.26464844,-0.71875,-0.28125,0.125,0.0,0.0,0.0
1696291588068,-0.359375,0.88964844,0.26660156,-0.53125,-0.28125,0.1875,0.0,0.0,0.0
1696291588103,-0.34472656,0.88964844,0.26171875,-0.28125,-0.09375,0.1875,0.0,0.0,0.0
1696291588159,-0.34765625,0.8798828,0.26757812,-0.71875,-0.40625,0.0625,0.0,0.0,0.0
1696291588194,-0.3623047,0.8876953,0.2734375,-0.78125,-0.46875,0.0,0.0,0.0,0.0
1696291588219,-0.36132812,0.88671875,0.27246094,-0.71875,-0.46875,-0.3125,0.0,0.0,0.0
1696291588282,-0.35253906,0.88183594,0.28320312,-0.90625,-0.15625,0.0,-36.75,2.3125,-192.625
1696291588310,-0.35253906,0.8876953,0.26757812,-0.03125,-0.34375,0.1875,0.0,0.0,0.0
1696291588338,-0.35351562,0.88964844,0.2783203,-0.59375,-0.28125,0.0625,0.0,0.0,0.0
1696291588401,-0.34472656,0.8847656,0.28320312,-0.34375,-0.15625,-0.0625,0.0,0.0,0.0
1696291588427,-0.3515625,0.8808594,0.28125,-0.09375,-0.09375,0.0625,0.0,0.0,0.0
1696291588468,-0.3515625,0.8847656,0.2685547,0.09375,-0.15625,0.0625,0.0,0.0,0.0
1696291588548,-0.36035156,0.88964844,0.27539062,-0.59375,-0.03125,-0.0625,0.0,0.0,0.0
1696291588549,-0.35839844,0.88964844,0.27148438,-0.09375,-0.28125,-0.1875,0.0,0.0,0.0
1696291588582,-0.3642578,0.8876953,0.26464844,-0.21875,-0.09375,-0.0625,0.0,0.0,0.0
1696291588638,-0.359375,0.88183594,0.2734375,-0.53125,-0.34375,0.1875,0.0,0.0,0.0
1696291588668,-0.35742188,0.8925781,0.26953125,-0.03125,-0.09375,0.0625,0.0,0.0,0.0
1696291588702,-0.34375,0.88671875,0.28222656,-0.34375,-0.34375,0.125,0.0,0.0,0.0
1696291588765,-0.3544922,0.8886719,0.2685547,-0.03125,0.15625,0.1875,0.0,0.0,0.0
1696291588799,-0.35351562,0.89160156,0.27148438,-0.03125,-0.09375,0.25,-36.4375,2.125,-192.1875
1696291588820,-0.3564453,0.88964844,0.26757812,-0.46875,-0.34375,0.0,0.0,0.0,0.0
1696291588879,-0.35351562,0.89453125,0.26367188,-0.59375,-0.03125,-0.125,0.0,0.0,0.0
1696291588913,-0.3564453,0.8886719,0.2763672,-0.53125,-0.09375,0.0,0.0,0.0,0.0
1696291588938,-0.35253906,0.890625,0.26757812,-0.46875,-0.21875,0.1875,0.0,0.0,0.0
1696291588998,-0.35058594,0.88964844,0.28320312,-0.53125,-0.34375,0.0,0.0,0.0,0.0
1696291589029,-0.35546875,0.88671875,0.2783203,-0.21875,-0.03125,0.0,0.0,0.0,0.0
1696291589059,-0.3486328,0.8828125,0.27148438,0.5,0.28125,-0.25,0.0,0.0,0.0
1696291589122,-0.35742188,0.88671875,0.2783203,0.8125,0.40625,-0.125,0.0,0.0,0.0
1696291589149,-0.35253906,0.88183594,0.26757812,0.625,0.46875,-0.1875,0.0,0.0,0.0
1696291589179,-0.3564453,0.88964844,0.27148438,0.5625,0.625,0.0,0.0,0.0,0.0
1696291589238,-0.35546875,0.89453125,0.27148438,0.28125,0.53125,-0.1875,0.0,0.0,0.0
1696291589270,-0.359375,0.88183594,0.2626953,0.40625,0.09375,-0.3125,-36.125,1.0625,-192.5
1696291589301,-0.36328125,0.87402344,0.28125,0.75,0.34375,-0.3125,0.0,0.0,0.0
1696291589358,-0.36132812,0.88964844,0.27734375,0.34375,0.40625,-0.125,0.0,0.0,0.0
1696291589389,-0.3623047,0.8798828,0.26367188,0.09375,0.21875,0.1875,0.0,0.0,0.0
1696291589419,-0.35253906,0.8847656,0.26367188,0.09375,0.15625,0.125,0.0,0.0,0.0
1696291589508,-0.34472656,0.8876953,0.265625,-0.09375,-0.15625,0.25,0.0,0.0,0.0
1696291589510,-0.36132812,0.8964844,0.2626953,-0.53125,-0.46875,-0.125,0.0,0.0,0.0
1696291589542,-0.35546875,0.8769531,0.2890625,0.03125,0.15625,0.0,0.0,0.0,0.0
1696291589601,-0.34960938,0.8798828,0.2626953,-0.28125,0.46875,0.125,0.0,0.0,0.0
1696291589629,-0.35351562,0.88671875,0.26660156,0.15625,0.34375,0.25,0.0,0.0,0.0
1696291589659,-0.35742188,0.8886719,0.2529297,0.75,0.28125,-0.1875,0.0,0.0,0.0
1696291589726,-0.34960938,0.8808594,0.25585938,0.75,0.40625,-0.25,0.0,0.0,0.0
1696291589749,-0.359375,0.8886719,0.27246094,1.0625,0.625,-0.3125,0.0,0.0,0.0
1696291589781,-0.35742188,0.87402344,0.2626953,1.71875,0.46875,-0.3125,-36.75,2.3125,-190.5625
1696291589843,-0.36523438,0.8925781,0.26757812,1.125,0.6875,-0.125,0.0,0.0,0.0
1696291589871,-0.3515625,0.88183594,0.265625,0.75,0.875,0.125,0.0,0.0,0.0
1696291589898,-0.36035156,0.8925781,0.26171875,0.625,0.5625,-0.125,0.0,0.0,0.0
1696291589958,-0.36035156,0.88964844,0.27148438,0.6875,0.21875,-0.125,0.0,0.0,0.0
1696291589990,-0.3486328,0.88378906,0.2734375,0.28125,0.15625,-0.125,0.0,0.0,0.0
1696291590021,-0.36523438,0.87597656,0.26660156,0.28125,0.15625,-0.125,0.0,0.0,0.0
1696291590091,-0.36328125,0.8886719,0.2626953,0.21875,0.46875,-0.0625,0.0,0.0,0.0
1696291590107,-0.35058594,0.8876953,0.26660156,0.21875,0.34375,0.1875,0.0,0.0,0.0
1696291590138,-0.36035156,0.8935547,0.26464844,-0.21875,-0.03125,0.25,0.0,0.0,0.0
1696291590198,-0.36914062,0.8769531,0.26464844,-0.09375,-0.09375,0.0,0.0,0.0,0.0
1696291590265,-0.3544922,0.8847656,0.26367188,0.03125,0.34375,0.0625,0.0,0.0,0.0
1696291590269,-0.35351562,0.8955078,0.27148438,-0.09375,0.15625,0.0625,-35.125,1.8125,-191.4375
1696291590318,-0.36035156,0.8876953,0.24316406,0.21875,-0.09375,0.0,0.0,0.0,0.0
1696291590349,-0.35253906,0.8886719,0.25976562,-0.09375,-0.21875,-0.125,0.0,0.0,0.0
1696291590382,-0.35351562,0.8828125,0.2626953,-0.09375,-0.09375,-0.1875,0.0,0.0,0.0
1696291590441,-0.3564453,0.8876953,0.2685547,-0.15625,-0.34375,-0.125,0.0,0.0,0.0
1696291590470,-0.35742188,0.8876953,0.2734375,-0.09375,-0.21875,0.0,0.0,0.0,0.0
1696291590498,-0.35546875,0.89453125,0.25976562,-0.59375,-0.46875,0.0625,0.0,0.0,0.0
1696291590564,-0.3671875,0.89160156,0.27246094,-1.0,-0.59375,0.1875,0.0,0.0,0.0
1696291590589,-0.35839844,0.8984375,0.2783203,-0.71875,-0.71875,0.1875,0.0,0.0,0.0
1696291590620,-0.35839844,0.88183594,0.28222656,-1.0,-0.71875,0.125,0.0,0.0,0.0
1696291590685,-0.35253906,0.8730469,0.2705078,-1.1875,-0.65625,0.0,0.0,0.0,0.0
1696291590709,-0.3564453,0.88378906,0.2578125,-0.78125,-0.59375,0.1875,0.0,0.0,0.0
1696291590741,-0.35351562,0.8886719,0.27246094,-0.71875,-0.46875,0.1875,0.0,0.0,0.0
1696291590798,-0.35351562,0.890625,0.28710938,-0.53125,-0.46875,0.125,-36.4375,1.375,-191.75
1696291590830,-0.35839844,0.8876953,0.26953125,-0.59375,-0.59375,0.0625,0.0,0.0,0.0
1696291590861,-0.35742188,0.89453125,0.2626953,-0.84375,-0.53125,-0.0625,0.0,0.0,0.0
1696291590922,-0.35351562,0.8935547,0.2763672,-0.46875,-0.21875,0.125,0.0,0.0,0.0
1696291590950,-0.34960938,0.89453125,0.26367188,-1.0625,-0.46875,0.3125,0.0,0.0,0.0
1696291590981,-0.35742188,0.88378906,0.28515625,-0.15625,-0.40625,0.1875,0.0,0.0,0.0
1696291591039,-0.35546875,0.88964844,0.27148438,0.03125,0.03125,0.0625,0.0,0.0,0.0
1696291591078,-0.3544922,0.8886719,0.26757812,-0.21875,-0.09375,0.0,0.0,0.0,0.0
1696291591102,-0.3564453,0.88671875,0.28222656,0.21875,0.03125,-0.125,0.0,0.0,0.0
1696291591161,-0.3564453,0.88964844,0.28125,0.5,0.09375,-0.0625,0.0,0.0,0.0
1696291591189,-0.3564453,0.88183594,0.26171875,-0.15625,0.03125,0.0,0.0,0.0,0.0
1696291591219,-0.35546875,0.89160156,0.25976562,-0.15625,0.15625,0.1875,0.0,0.0,0.0
1696291591279,-0.34765625,0.8886719,0.2685547,-0.03125,-0.03125,0.0625,-35.125,1.8125,-190.6875
1696291591308,-0.3544922,0.88964844,0.27148438,-0.34375,-0.28125,-0.125,0.0,0.0,0.0
1696291591338,-0.35058594,0.88183594,0.27148438,0.28125,0.21875,0.0625,0.0,0.0,0.0
1696291591368,-0.36132812,0.8876953,0.27148438,-0.09375,-0.09375,0.1875,0.0,0.0,0.0
1696291591428,-0.3564453,0.88183594,0.27539062,-0.53125,-0.09375,0.0625,0.0,0.0,0.0
1696291591460,-0.35742188,0.8876953,0.2939453,0.28125,0.03125,0.125,0.0,0.0,0.0
1696291591522,-0.35351562,0.88671875,0.26660156,-0.15625,-0.21875,-0.0625,0.0,0.0,0.0
1696291591551,-0.35351562,0.88183594,0.265625,-0.21875,-0.09375,-0.0625,0.0,0.0,0.0
1696291591578,-0.3515625,0.8798828,0.27929688,-0.21875,0.09375,0.4375,0.0,0.0,0.0
1696291591614,-0.34472656,0.87890625,0.2763672,-0.53125,0.03125,0.4375,0.0,0.0,0.0
1696291591672,-0.3544922,0.8925781,0.27246094,0.15625,0.03125,0.0,0.0,0.0,0.0
1696291591703,-0.35742188,0.8828125,0.2783203,0.03125,0.03125,0.0,0.0,0.0,0.0
1696291591728,-0.35546875,0.8886719,0.28710938,-0.09375,-0.03125,-0.0625,0.0,0.0,0.0
1696291591791,-0.36035156,0.8876953,0.2685547,0.40625,0.09375,-0.125,-37.8125,1.5625,-190.5625
1696291591820,-0.36132812,0.88378906,0.2763672,0.09375,0.03125,0.0,0.0,0.0,0.0
1696291591851,-0.36035156,0.8876953,0.27441406,-0.53125,-0.03125,0.1875,0.0,0.0,0.0
1696291591912,-0.35546875,0.88183594,0.26464844,0.09375,0.09375,0.375,0.0,0.0,0.0
1696291591939,-0.34960938,0.88671875,0.265625,0.15625,0.03125,-0.0625,0.0,0.0,0.0
1696291591970,-0.35253906,0.88671875,0.2685547,0.03125,0.03125,-0.1875,0.0,0.0,0.0
1696291592029,-0.35546875,0.88671875,0.26953125,0.09375,-0.03125,0.0,0.0,0.0,0.0
1696291592060,-0.359375,0.8808594,0.26757812,0.03125,0.03125,-0.0625,0.0,0.0,0.0
1696291592090,-0.35253906,0.890625,0.27734375,-0.03125,0.09375,0.125,0.0,0.0,0.0
1696291592152,-0.35351562,0.8876953,0.25976562,-0.40625,-0.09375,0.125,0.0,0.0,0.0
1696291592184,-0.34960938,0.890625,0.27148438,-0.78125,-0.34375,0.0,0.0,0.0,0.0
1696291592210,-0.35839844,0.88671875,0.27929688,-0.09375,-0.28125,0.0625,0.0,0.0,0.0
1696291592272,-0.36816406,0.88671875,0.2939453,-0.03125,0.21875,-0.0625,-35.5625,2.0,-190.875
1696291592298,-0.36035156,0.8847656,0.2939453,-0.28125,-0.09375,0.3125,0.0,0.0,0.0
1696291592327,-0.34960938,0.87890625,0.2841797,0.03125,-0.09375,0.25,0.0,0.0,0.0
1696291592391,-0.35253906,0.8798828,0.26367188,0.8125,0.46875,-0.125,0.0,0.0,0.0
1696291592423,-0.3515625,0.8876953,0.2783203,0.75,0.5625,-0.4375,0.0,0.0,0.0
1696291592448,-0.35253906,0.8876953,0.2890625,0.75,0.53125,-0.4375,0.0,0.0,0.0
1696291592540,-0.36621094,0.8857422,0.25976562,1.4375,0.46875,-0.1875,0.0,0.0,0.0
1696291592543,-0.36035156,0.8808594,0.27246094,1.625,1.0,-0.375,0.0,0.0,0.0
1696291592603,-0.3486328,0.8876953,0.2705078,1.5,1.3125,-0.125,0.0,0.0,0.0
1696291592628,-0.3515625,0.8935547,0.2783203,1.3125,0.8125,-0.25,0.0,0.0,0.0
1696291592659,-0.35253906,0.8828125,0.2763672,0.96875,0.21875,-0.3125,0.0,0.0,0.0
1696291592692,-0.359375,0.8798828,0.2529297,0.59375,0.03125,-0.375,0.0,0.0,0.0
1696291592752,-0.36132812,0.8847656,0.25878906,0.71875,0.21875,-0.375,0.0,0.0,0.0
1696291592783,-0.3642578,0.89160156,0.27148438,0.40625,0.15625,-0.1875,-36.75,2.3125,-190.875
1696291592808,-0.3544922,0.8886719,0.24804688,0.09375,0.21875,0.125,0.0,0.0,0.0
1696291592871,-0.36035156,0.8876953,0.26367188,-0.25,-0.03125,0.25,0.0,0.0,0.0
1696291592907,-0.3623047,0.890625,0.27148438,-0.625,-0.375,0.125,0.0,0.0,0.0
1696291592931,-0.3515625,0.8808594,0.26464844,-0.09375,0.21875,0.0625,0.0,0.0,0.0
1696291592994,-0.3466797,0.8876953,0.27148438,-0.25,0.34375,0.125,0.0,0.0,0.0
1696291593049,-0.35839844,0.8955078,0.26464844,0.03125,-0.09375,-0.0625,0.0,0.0,0.0
1696291593051,-0.35546875,0.88378906,0.265625,0.46875,-0.03125,-0.1875,0.0,0.0,0.0
1696291593111,-0.3623047,0.8876953,0.2626953,0.34375,0.15625,-0.125,0.0,0.0,0.0
1696291593138,-0.35351562,0.88378906,0.25976562,0.21875,0.40625,-0.3125,0.0,0.0,0.0
1696291593170,-0.35742188,0.89160156,0.25878906,1.1875,0.40625,-0.0625,0.0,0.0,0.0
1696291593230,-0.3544922,0.8984375,0.27734375,1.25,0.59375,-0.0625,0.0,0.0,0.0
1696291593259,-0.35351562,0.8857422,0.26660156,0.96875,1.25,0.25,-36.875,1.0625,-192.5
1696291593287,-0.3623047,0.8935547,0.2607422,0.84375,0.59375,-0.125,0.0,0.0,0.0
1696291593348,-0.36328125,0.8828125,0.2548828,0.71875,0.15625,-0.125,0.0,0.0,0.0
1696291593380,-0.35546875,0.8857422,0.2548828,0.03125,-0.1875,-0.4375,0.0,0.0,0.0
1696291593410,-0.3671875,0.8876953,0.26660156,0.40625,0.15625,-0.375,0.0,0.0,0.0
1696291593468,-0.36621094,0.8935547,0.25585938,0.15625,0.21875,-0.0625,0.0,0.0,0.0
1696291593501,-0.359375,0.88964844,0.2421875,-0.3125,-0.15625,0.1875,0.0,0.0,0.0
1696291593531,-0.36132812,0.89160156,0.2734375,-0.5,-0.3125,0.4375,0.0,0.0,0.0
1696291593592,-0.3564453,0.8876953,0.2529297,-0.875,-0.625,0.0,0.0,0.0,0.0
1696291593621,-0.35839844,0.8876953,0.26660156,-0.625,-0.03125,0.125,0.0,0.0,0.0
1696291593648,-0.3623047,0.89453125,0.26660156,-1.0,-0.1875,0.25,0.0,0.0,0.0
1696291593710,-0.35058594,0.8876953,0.265625,-0.15625,-0.6875,-0.0625,0.0,0.0,0.0
1696291593742,-0.35742188,0.8876953,0.27148438,-0.5,-0.5625,0.125,0.0,0.0,0.0
1696291593769,-0.36523438,0.87597656,0.25683594,-0.5625,-0.5,-0.125,-37.0625,1.25,-191.625
1696291593835,-0.3623047,0.88671875,0.25878906,-0.5,-0.3125,-0.3125,0.0,0.0,0.0
1696291593858,-0.35742188,0.89160156,0.2607422,0.40625,-0.15625,-0.25,0.0,0.0,0.0
1696291593891,-0.3642578,0.8808594,0.25195312,-1.0625,-0.5625,-0.125,0.0,0.0,0.0
1696291593950,-0.3623047,0.88671875,0.2529297,-1.53125,-0.875,0.125,0.0,0.0,0.0
1696291593982,-0.35742188,0.8798828,0.26367188,-0.6875,-0.75,0.1875,0.0,0.0,0.0
1696291594010,-0.36328125,0.8847656,0.25,-1.0,-0.5625,0.125,0.0,0.0,0.0
1696291594069,-0.3623047,0.8935547,0.2529297,-1.59375,-0.75,-0.0625,0.0,0.0,0.0
1696291594101,-0.35839844,0.88183594,0.2841797,-1.125,-0.9375,0.1875,0.0,0.0,0.0
1696291594131,-0.35546875,0.88964844,0.2783203,-1.78125,-0.9375,0.4375,0.0,0.0,0.0
1696291594188,-0.36523438,0.8886719,0.28125,-1.25,-0.75,0.375,0.0,0.0,0.0
1696291594225,-0.35253906,0.89160156,0.26660156,-1.3125,-0.625,0.1875,0.0,0.0,0.0
1696291594259,-0.36132812,0.8876953,0.27539062,-1.125,-0.8125,0.0,-35.25,1.5625,-191.3125
1696291594308,-0.35351562,0.8876953,0.27441406,-1.125,-0.625,0.125,0.0,0.0,0.0
1696291594339,-0.3544922,0.88671875,0.265625,-1.4375,-0.625,0.25,0.0,0.0,0.0
1696291594370,-0.35742188,0.88378906,0.27734375,-0.25,-0.375,0.1875,0.0,0.0,0.0
1696291594428,-0.35742188,0.8798828,0.27441406,-0.4375,-0.3125,0.0625,0.0,0.0,0.0
1696291594458,-0.36035156,0.8779297,0.26757812,-0.5,-0.25,0.0,0.0,0.0,0.0
1696291594488,-0.35351562,0.8857422,0.2890625,0.15625,-0.15625,-0.125,0.0,0.0,0.0
1696291594550,-0.35546875,0.8798828,0.2685547,-0.03125,-0.09375,0.0,0.0,0.0,0.0
1696291594581,-0.36132812,0.8876953,0.26953125,-0.15625,-0.03125,0.0625,0.0,0.0,0.0
1696291594607,-0.3515625,0.8847656,0.26660156,-0.25,-0.03125,0.25,0.0,0.0,0.0
1696291594675,-0.3515625,0.8857422,0.2734375,-0.1875,-0.09375,-0.0625,0.0,0.0,0.0
1696291594700,-0.35546875,0.8955078,0.26367188,-0.375,-0.25,0.0,0.0,0.0,0.0
1696291594729,-0.3515625,0.8798828,0.26464844,-0.4375,-0.3125,-0.125,0.0,0.0,0.0
1696291594823,-0.36621094,0.8886719,0.25683594,-0.25,-0.03125,0.1875,-35.875,1.8125,-191.125
1696291594826,-0.35546875,0.8857422,0.28320312,-0.09375,-0.09375,0.1875,0.0,0.0,0.0
1696291594850,-0.3623047,0.88964844,0.27148438,-0.25,-0.09375,0.25,0.0,0.0,0.0
1696291594910,-0.35351562,0.8847656,0.28515625,-0.03125,-0.09375,0.125,0.0,0.0,0.0
1696291594941,-0.35058594,0.88964844,0.28027344,-0.3125,-0.4375,-0.0625,0.0,0.0,0.0
1696291595029,-0.36328125,0.8847656,0.27929688,-0.5625,-0.4375,-0.125,0.0,0.0,0.0
1696291595031,-0.3515625,0.88378906,0.27148438,-0.03125,0.09375,0.0625,0.0,0.0,0.0
1696291595060,-0.35351562,0.8779297,0.2783203,-0.25,0.03125,0.3125,0.0,0.0,0.0
1696291595089,-0.35742188,0.8876953,0.26757812,-0.09375,-0.09375,0.0625,0.0,0.0,0.0
1696291595156,-0.35351562,0.88964844,0.26757812,-0.15625,-0.15625,-0.125,0.0,0.0,0.0
1696291595181,-0.36035156,0.8857422,0.28125,-0.09375,-0.09375,-0.0625,0.0,0.0,0.0
1696291595210,-0.36523438,0.8847656,0.26757812,-0.03125,-0.03125,-0.1875,0.0,0.0,0.0
1696291595271,-0.359375,0.890625,0.26757812,-0.15625,-0.1875,0.1875,-37.1875,1.8125,-192.5
1696291595299,-0.34277344,0.88671875,0.2763672,-0.5625,-0.09375,0.3125,0.0,0.0,0.0
1696291595329,-0.35058594,0.8857422,0.2763672,-0.25,-0.15625,0.25,0.0,0.0,0.0
1696291595388,-0.34960938,0.8857422,0.2763672,-0.03125,-0.09375,-0.1875,0.0,0.0,0.0
1696291595419,-0.35546875,0.87890625,0.28125,-0.25,-0.09375,-0.1875,0.0,0.0,0.0
1696291595450,-0.3623047,0.88378906,0.26953125,0.03125,-0.09375,-0.125,0.0,0.0,0.0
1696291595508,-0.3486328,0.88671875,0.27441406,-0.15625,-0.09375,0.0,0.0,0.0,0.0
1696291595541,-0.35253906,0.88378906,0.28027344,0.09375,0.34375,0.1875,0.0,0.0,0.0
1696291595569,-0.35546875,0.8808594,0.2734375,-0.15625,0.15625,-0.0625,0.0,0.0,0.0
1696291595660,-0.359375,0.88378906,0.27148438,0.53125,0.03125,-0.125,0.0,0.0,0.0
1696291595662,-0.3564453,0.88964844,0.26953125,0.59375,0.09375,-0.4375,0.0,0.0,0.0
1696291595692,-0.3623047,0.88671875,0.26757812,0.34375,0.59375,-0.1875,0.0,0.0,0.0
1696291595758,-0.3564453,0.8925781,0.26757812,0.46875,0.59375,0.1875,0.0,0.0,0.0
1696291595779,-0.3486328,0.8857422,0.2705078,0.15625,0.34375,0.125,-37.0625,1.5625,-191.625
1696291595843,-0.3466797,0.8779297,0.26660156,0.53125,-0.03125,-0.25,0.0,0.0,0.0
1696291595868,-0.3701172,0.89160156,0.2685547,0.28125,0.03125,-0.1875,0.0,0.0,0.0
1696291595899,-0.35839844,0.88378906,0.2763672,0.40625,0.21875,-0.1875,0.0,0.0,0.0
1696291595929,-0.359375,0.8779297,0.26660156,0.59375,0.34375,0.0625,0.0,0.0,0.0
1696291595988,-0.3564453,0.88671875,0.27148438,0.15625,0.34375,0.125,0.0,0.0,0.0
1696291596019,-0.3466797,0.8857422,0.26171875,0.15625,0.46875,0.0625,0.0,0.0,0.0
1696291596047,-0.35839844,0.8857422,0.2626953,0.09375,0.28125,-0.25,0.0,0.0,0.0
1696291596112,-0.35351562,0.87597656,0.25683594,0.46875,0.15625,-0.125,0.0,0.0,0.0
1696291596140,-0.35351562,0.8847656,0.26464844,0.90625,0.09375,-0.25,0.0,0.0,0.0
1696291596178,-0.36621094,0.88964844,0.2548828,0.09375,0.09375,-0.1875,0.0,0.0,0.0
1696291596228,-0.35839844,0.8935547,0.25,-0.4375,-0.15625,-0.125,0.0,0.0,0.0
1696291596259,-0.36132812,0.890625,0.27246094,0.59375,0.34375,-0.1875,-36.875,2.875,-192.5
1696291596287,-0.35351562,0.8925781,0.2626953,0.09375,0.09375,0.0625,0.0,0.0,0.0
1696291596348,-0.34472656,0.890625,0.2734375,-0.5,-0.3125,0.0625,0.0,0.0,0.0
1696291596379,-0.3720703,0.8886719,0.2685547,-0.03125,0.28125,-0.1875,0.0,0.0,0.0
1696291596409,-0.35742188,0.8779297,0.24707031,-0.25,0.53125,0.1875,0.0,0.0,0.0
1696291596470,-0.35546875,0.8876953,0.26464844,0.21875,-0.03125,-0.1875,0.0,0.0,0.0
1696291596498,-0.35546875,0.88183594,0.26171875,0.84375,0.09375,-0.1875,0.0,0.0,0.0
1696291596531,-0.359375,0.89160156,0.27148438,-0.1875,-0.15625,-0.125,0.0,0.0,0.0
1696291596595,-0.3564453,0.88378906,0.24511719,-0.25,-0.09375,0.125,0.0,0.0,0.0
1696291596620,-0.359375,0.8876953,0.27441406,0.21875,-0.09375,0.125,0.0,0.0,0.0
1696291596648,-0.35058594,0.8847656,0.2685547,-0.1875,0.03125,0.0625,0.0,0.0,0.0
1696291596710,-0.359375,0.88671875,0.2734375,-0.375,0.09375,0.3125,0.0,0.0,0.0
1696291596739,-0.3623047,0.89160156,0.2734375,-0.15625,-0.15625,0.0,0.0,0.0,0.0
1696291596769,-0.3544922,0.8808594,0.26953125,-0.3125,-0.375,0.0,-35.5625,2.3125,-192.375
1696291596829,-0.36914062,0.8925781,0.25390625,-0.25,-0.15625,-0.0625,0.0,0.0,0.0
1696291596859,-0.36035156,0.89160156,0.26171875,-0.3125,-0.15625,-0.25,0.0,0.0,0.0
1696291596890,-0.35839844,0.8847656,0.2626953,-0.1875,-0.03125,0.125,0.0,0.0,0.0
1696291596949,-0.36132812,0.8925781,0.26367188,-0.25,-0.1875,0.1875,0.0,0.0,0.0
1696291596981,-0.35351562,0.8935547,0.26464844,-0.9375,-0.5,0.125,0.0,0.0,0.0
1696291597007,-0.36035156,0.8857422,0.2626953,-0.4375,-0.5625,-0.0625,0.0,0.0,0.0
1696291597103,-0.35058594,0.89160156,0.2763672,-0.5625,0.09375,0.25,0.0,0.0,0.0
1696291597107,-0.34765625,0.8886719,0.2705078,-0.8125,-0.1875,0.3125,0.0,0.0,0.0
1696291597130,-0.35742188,0.890625,0.27441406,-0.03125,-0.25,-0.125,0.0,0.0,0.0
1696291597190,-0.35351562,0.88378906,0.26660156,-0.5,-0.375,-0.125,0.0,0.0,0.0
1696291597219,-0.359375,0.9003906,0.2548828,-0.3125,-0.3125,-0.1875,0.0,0.0,0.0
1696291597248,-0.3701172,0.890625,0.24707031,-0.09375,-0.25,-0.0625,-37.8125,2.0,-191.875
1696291597314,-0.35742188,0.89160156,0.26660156,-0.625,-0.4375,0.0625,0.0,0.0,0.0
1696291597338,-0.36035156,0.88183594,0.25390625,-0.9375,-0.3125,0.1875,0.0,0.0,0.0
1696291597367,-0.35253906,0.88671875,0.25683594,-0.625,-0.5625,0.3125,0.0,0.0,0.0
1696291597429,-0.35546875,0.89160156,0.26660156,-1.1875,-0.6875,0.125,0.0,0.0,0.0
1696291597464,-0.3642578,0.8857422,0.27441406,-1.3125,-1.1875,0.0,0.0,0.0,0.0
1696291597487,-0.36035156,0.8779297,0.25878906,-1.3125,-1.1875,0.125,0.0,0.0,0.0
1696291597551,-0.3642578,0.8876953,0.26953125,-1.375,-0.875,0.125,0.0,0.0,0.0
1696291597579,-0.3671875,0.8925781,0.26660156,-1.46875,-0.875,0.125,0.0,0.0,0.0
1696291597609,-0.34277344,0.88964844,0.26660156,-1.78125,-0.875,0.3125,0.0,0.0,0.0
1696291597669,-0.3623047,0.8857422,0.27246094,-1.96875,-1.59375,0.1875,0.0,0.0,0.0
1696291597700,-0.36035156,0.88378906,0.25683594,-1.96875,-1.53125,0.125,0.0,0.0,0.0
1696291597732,-0.3515625,0.8935547,0.265625,-1.53125,-0.875,0.25,0.0,0.0,0.0
1696291597790,-0.35742188,0.8808594,0.26660156,-0.6875,-0.625,0.5625,-36.0,1.25,-191.3125
1696291597819,-0.3544922,0.89160156,0.27539062,-1.125,-0.8125,0.25,0.0,0.0,0.0
1696291597853,-0.34960938,0.8886719,0.2783203,-1.53125,-1.0625,0.375,0.0,0.0,0.0
1696291597913,-0.36132812,0.88671875,0.27246094,-1.4375,-0.875,0.1875,0.0,0.0,0.0
1696291597971,-0.36035156,0.8769531,0.26757812,-0.625,-0.6875,0.125,0.0,0.0,0.0
1696291597973,-0.35742188,0.88671875,0.2783203,-1.0625,-0.6875,0.0,0.0,0.0,0.0
1696291598029,-0.3544922,0.8808594,0.28320312,-1.125,-0.75,0.1875,0.0,0.0,0.0
1696291598058,-0.34570312,0.88378906,0.2685547,-0.5,-0.4375,0.125,0.0,0.0,0.0
1696291598090,-0.35058594,0.8798828,0.26171875,-0.625,-0.15625,0.3125,0.0,0.0,0.0
1696291598180,-0.35351562,0.89160156,0.28027344,-0.5625,-0.3125,0.125,0.0,0.0,0.0
1696291598183,-0.35351562,0.8857422,0.27441406,-0.4375,-0.4375,-0.125,0.0,0.0,0.0
1696291598208,-0.359375,0.8886719,0.2734375,-0.4375,-0.3125,0.0625,0.0,0.0,0.0
1696291598274,-0.35742188,0.8857422,0.26367188,-0.3125,-0.15625,0.1875,-36.0,3.3125,-190.875
1696291598300,-0.3544922,0.8964844,0.26953125,-0.4375,-0.375,0.1875,0.0,0.0,0.0
1696291598327,-0.3515625,0.88183594,0.27246094,-0.4375,-0.5,-0.125,0.0,0.0,0.0
1696291598394,-0.359375,0.8779297,0.27539062,-0.6875,-0.625,-0.125,0.0,0.0,0.0
1696291598420,-0.36035156,0.88671875,0.28125,-0.875,-0.625,0.0,0.0,0.0,0.0
1696291598449,-0.35253906,0.8808594,0.26953125,-0.3125,-0.3125,0.125,0.0,0.0,0.0
1696291598509,-0.3544922,0.88378906,0.2578125,-0.75,-0.4375,0.25,0.0,0.0,0.0
1696291598541,-0.36132812,0.8876953,0.26953125,-0.75,-0.625,0.125,0.0,0.0,0.0
1696291598571,-0.3564453,0.8798828,0.2734375,-0.5,-0.5,0.1875,0.0,0.0,0.0
1696291598634,-0.3642578,0.875,0.2890625,-0.4375,-0.3125,0.125,0.0,0.0,0.0
1696291598659,-0.3564453,0.89453125,0.28320312,-0.1875,-0.15625,-0.0625,0.0,0.0,0.0
1696291598691,-0.35351562,0.8857422,0.27246094,-0.5,-0.1875,0.1875,0.0,0.0,0.0
1696291598749,-0.35351562,0.89453125,0.27734375,-0.3125,-0.1875,0.3125,0.0,0.0,0.0
1696291598778,-0.35742188,0.8808594,0.28515625,-0.375,-0.1875,0.0625,-36.0,2.0,-191.625
1696291598810,-0.35839844,0.8886719,0.26171875,-0.375,-0.4375,-0.0625,0.0,0.0,0.0
1696291598877,-0.36132812,0.87597656,0.26367188,-0.3125,-0.3125,0.0,0.0,0.0,0.0
1696291598900,-0.3564453,0.88378906,0.27734375,-0.5625,-0.3125,0.25,0.0,0.0,0.0
1696291598929,-0.3544922,0.88671875,0.26757812,-0.4375,-0.1875,0.25,0.0,0.0,0.0
1696291598993,-0.34765625,0.8886719,0.27929688,-0.75,-0.375,0.25,0.0,0.0,0.0
1696291599023,-0.35546875,0.87597656,0.27148438,-0.6875,-0.5,0.125,0.0,0.0,0.0
1696291599047,-0.359375,0.8886719,0.27539062,-0.5,-0.09375,0.0625,0.0,0.0,0.0
1696291599122,-0.3564453,0.8798828,0.29101562,-0.75,-0.25,0.3125,0.0,0.0,0.0
1696291599140,-0.34765625,0.8876953,0.27441406,-0.375,-0.375,0.1875,0.0,0.0,0.0
1696291599168,-0.35742188,0.8857422,0.26464844,-0.1875,-0.375,-0.0625,0.0,0.0,0.0
1696291599231,-0.34960938,0.88183594,0.27148438,-0.15625,-0.15625,-0.125,0.0,0.0,0.0
1696291599262,-0.3515625,0.88378906,0.27148438,-0.1875,-0.15625,-0.125,-37.0625,2.0,-190.5625
1696291599287,-0.3642578,0.8876953,0.26953125,0.21875,-0.09375,0.0,0.0,0.0,0.0
1696291599386,-0.35546875,0.88964844,0.28320312,-0.5,-0.1875,0.0,0.0,0.0,0.0
1696291599389,-0.35351562,0.8955078,0.27441406,-0.4375,-0.15625,0.25,0.0,0.0,0.0
1696291599408,-0.35742188,0.88964844,0.26757812,-0.15625,-0.03125,-0.0625,0.0,0.0,0.0
1696291599473,-0.35253906,0.89160156,0.2626953,-0.4375,-0.375,-0.125,0.0,0.0,0.0
1696291599498,-0.3466797,0.8847656,0.2685547,-0.25,-0.15625,-0.25,0.0,0.0,0.0
1696291599528,-0.35546875,0.8828125,0.27148438,-0.03125,-0.15625,0.0,0.0,0.0,0.0
1696291599592,-0.3515625,0.88183594,0.28125,-0.09375,0.15625,0.0,0.0,0.0,0.0
1696291599621,-0.359375,0.88671875,0.2734375,0.28125,0.28125,0.0,0.0,0.0,0.0
1696291599647,-0.35253906,0.8876953,0.26367188,-0.15625,0.03125,0.0625,0.0,0.0,0.0
1696291599710,-0.359375,0.8955078,0.27246094,-0.3125,-0.25,-0.0625,0.0,0.0,0.0
1696291599739,-0.35742188,0.88183594,0.27734375,0.03125,0.28125,0.0,0.0,0.0,0.0
1696291599768,-0.35839844,0.88964844,0.26464844,-0.25,0.15625,0.25,-35.875,1.0625,-192.1875
1696291599838,-0.36035156,0.89453125,0.2685547,0.34375,0.03125,-0.125,0.0,0.0,0.0
1696291599863,-0.35742188,0.8798828,0.2626953,0.78125,0.03125,-0.1875,0.0,0.0,0.0
1696291599887,-0.36035156,0.8935547,0.28222656,0.40625,0.15625,-0.125,0.0,0.0,0.0
1696291599978,-0.35351562,0.8925781,0.25878906,0.59375,0.28125,-0.1875,0.0,0.0,0.0
1696291599982,-0.36132812,0.8935547,0.27148438,1.03125,0.40625,0.0,0.0,0.0,0.0
1696291600011,-0.35351562,0.88964844,0.27148438,0.09375,0.21875,-0.125,0.0,0.0,0.0
1696291600070,-0.35742188,0.89453125,0.2626953,-0.375,0.03125,0.0625,0.0,0.0,0.0
1696291600098,-0.3544922,0.88378906,0.2578125,0.28125,-0.03125,-0.0625,0.0,0.0,0.0
1696291600129,-0.3564453,0.8935547,0.26953125,-0.03125,-0.15625,-0.125,0.0,0.0,0.0
1696291600162,-0.3623047,0.88671875,0.2578125,-0.375,-0.15625,-0.0625,0.0,0.0,0.0
1696291600222,-0.35546875,0.8886719,0.2607422,-0.1875,-0.1875,0.125,0.0,0.0,0.0
1696291600248,-0.35839844,0.8935547,0.26171875,-0.4375,-0.03125,0.1875,-37.1875,0.625,-191.75
1696291600284,-0.3515625,0.8847656,0.27246094,-0.15625,0.09375,0.25,0.0,0.0,0.0
1696291600341,-0.36132812,0.8925781,0.27539062,-0.3125,-0.1875,0.0625,0.0,0.0,0.0
1696291600371,-0.35742188,0.8857422,0.2734375,-0.375,-0.3125,-0.125,0.0,0.0,0.0
1696291600399,-0.35351562,0.8876953,0.2734375,-0.25,0.34375,0.0625,0.0,0.0,0.0
1696291600465,-0.35253906,0.89160156,0.2529297,-0.1875,-0.09375,0.25,0.0,0.0,0.0
1696291600488,-0.35058594,0.8857422,0.26757812,-0.09375,-0.1875,-0.0625,0.0,0.0,0.0
1696291600524,-0.35253906,0.8857422,0.25683594,-0.5625,-0.25,-0.0625,0.0,0.0,0.0
1696291600583,-0.36132812,0.88964844,0.2763672,-0.3125,-0.25,0.0,0.0,0.0,0.0
1696291600609,-0.3623047,0.8964844,0.27148438,-0.1875,-0.1875,-0.0625,0.0,0.0,0.0
1696291600638,-0.36132812,0.88964844,0.26464844,-0.25,-0.03125,0.0,0.0,0.0,0.0
1696291600700,-0.3564453,0.8886719,0.2529297,-0.3125,-0.15625,0.1875,0.0,0.0,0.0
1696291600729,-0.34960938,0.8925781,0.27734375,-0.5,-0.375,0.0,0.0,0.0,0.0
1696291600790,-0.35546875,0.87890625,0.2607422,-0.25,-0.25,-0.0625,-37.0625,1.5625,-192.9375
1696291600818,-0.359375,0.88671875,0.25097656,-0.8125,-0.5,-0.1875,0.0,0.0,0.0
1696291600851,-0.359375,0.87890625,0.26464844,-0.75,-0.625,-0.125,0.0,0.0,0.0
1696291600880,-0.35351562,0.89941406,0.265625,-0.75,-0.625,0.25,0.0,0.0,0.0
1696291600939,-0.36035156,0.8847656,0.2705078,-1.0,-0.625,0.125,0.0,0.0,0.0
1696291600969,-0.3623047,0.8798828,0.25390625,-0.875,-0.625,0.3125,0.0,0.0,0.0
1696291600998,-0.36621094,0.88183594,0.26757812,-0.875,-0.75,0.125,0.0,0.0,0.0
1696291601059,-0.359375,0.8886719,0.265625,-1.25,-0.5625,0.0625,0.0,0.0,0.0
1696291601092,-0.35058594,0.8876953,0.2626953,-1.4375,-0.6875,0.375,0.0,0.0,0.0
1696291601119,-0.36523438,0.8876953,0.2705078,-0.75,-0.8125,0.3125,0.0,0.0,0.0
1696291601185,-0.3564453,0.875,0.2763672,-0.9375,-0.6875,0.1875,0.0,0.0,0.0
1696291601210,-0.35839844,0.88378906,0.26171875,-0.4375,-0.3125,0.125,0.0,0.0,0.0
1696291601241,-0.35839844,0.88964844,0.27734375,-0.625,-0.15625,0.0625,-36.4375,0.625,-193.125
1696291601299,-0.36035156,0.88183594,0.26660156,-0.5625,-0.4375,0.1875,0.0,0.0,0.0
1696291601329,-0.3623047,0.890625,0.2734375,-0.8125,-0.4375,0.25,0.0,0.0,0.0
1696291601359,-0.34765625,0.8769531,0.27441406,-0.875,-0.3125,0.25,0.0,0.0,0.0
1696291601421,-0.3642578,0.88671875,0.26757812,-0.4375,-0.375,0.125,0.0,0.0,0.0
1696291601451,-0.3486328,0.88183594,0.25878906,-0.3125,-0.4375,-0.0625,0.0,0.0,0.0
1696291601478,-0.35546875,0.88671875,0.26953125,-0.5,-0.5,0.0,0.0,0.0,0.0
1696291601544,-0.3623047,0.88378906,0.26953125,-0.5625,-0.3125,0.125,0.0,0.0,0.0
1696291601570,-0.3564453,0.8964844,0.25976562,-0.5,-0.375,0.25,0.0,0.0,0.0
1696291601600,-0.3544922,0.89453125,0.26953125,-0.75,-0.1875,0.125,0.0,0.0,0.0
1696291601661,-0.3466797,0.88378906,0.26464844,-0.625,-0.4375,0.0,0.0,0.0,0.0
1696291601691,-0.35839844,0.88183594,0.2734375,-0.3125,-0.375,-0.0625,0.0,0.0,0.0
1696291601717,-0.36621094,0.8964844,0.2841797,-0.3125,-0.1875,0.0625,0.0,0.0,0.0
1696291601780,-0.35058594,0.88671875,0.2626953,-0.5625,-0.25,0.375,-36.125,1.8125,-192.8125
1696291601811,-0.3515625,0.87890625,0.26757812,-0.1875,-0.3125,0.0625,0.0,0.0,0.0
1696291601838,-0.3564453,0.8808594,0.2783203,-0.375,-0.15625,-0.0625,0.0,0.0,0.0
1696291601900,-0.3623047,0.87890625,0.26464844,-0.75,-0.375,-0.0625,0.0,0.0,0.0
1696291601930,-0.35253906,0.88378906,0.25976562,-0.25,-0.375,0.0625,0.0,0.0,0.0
1696291601961,-0.3564453,0.8955078,0.26953125,-0.3125,-0.3125,0.125,0.0,0.0,0.0
1696291602022,-0.3564453,0.8798828,0.28222656,-0.9375,-0.1875,0.125,0.0,0.0,0.0
1696291602050,-0.34765625,0.88378906,0.27246094,-0.625,-0.375,0.1875,0.0,0.0,0.0
1696291602079,-0.359375,0.8847656,0.2685547,-0.3125,-0.4375,0.0625,0.0,0.0,0.0
1696291602138,-0.34960938,0.89453125,0.26660156,-0.8125,-0.375,0.0625,0.0,0.0,0.0
1696291602169,-0.3515625,0.8769531,0.27148438,-0.5,-0.375,0.0625,0.0,0.0,0.0
1696291602207,-0.3623047,0.8886719,0.2734375,-0.5,-0.25,0.125,0.0,0.0,0.0
1696291602261,-0.35058594,0.87402344,0.27148438,-0.625,-0.25,0.125,-36.0,2.0,-192.375
1696291602289,-0.35546875,0.88183594,0.25683594,-0.09375,-0.09375,0.0625,0.0,0.0,0.0
1696291602320,-0.359375,0.88964844,0.25683594,-0.3125,-0.375,-0.125,0.0,0.0,0.0
1696291602380,-0.36132812,0.87890625,0.2626953,-0.625,-0.5,0.0625,0.0,0.0,0.0
1696291602409,-0.3515625,0.8779297,0.27929688,-0.25,0.03125,0.1875,0.0,0.0,0.0
1696291602438,-0.3642578,0.8876953,0.27539062,-0.5,0.03125,0.3125,0.0,0.0,0.0
1696291602499,-0.35351562,0.88183594,0.25878906,-0.25,-0.25,0.0,0.0,0.0,0.0
1696291602528,-0.34960938,0.88378906,0.26171875,-0.3125,-0.375,-0.125,0.0,0.0,0.0
1696291602560,-0.35058594,0.8828125,0.28808594,-0.3125,-0.25,-0.1875,0.0,0.0,0.0
1696291602622,-0.35839844,0.8847656,0.28027344,-0.25,0.03125,0.0,0.0,0.0,0.0
1696291602681,-0.35839844,0.8876953,0.26464844,-0.5625,-0.4375,0.125,0.0,0.0,0.0
1696291602685,-0.36132812,0.8798828,0.25097656,-0.8125,-0.25,0.3125,0.0,0.0,0.0
1696291602738,-0.35253906,0.890625,0.2626953,-0.6875,-0.3125,0.25,0.0,0.0,0.0
1696291602773,-0.35546875,0.88671875,0.27246094,-0.625,-0.3125,-0.0625,-36.125,2.4375,-191.75
1696291602800,-0.35546875,0.8779297,0.28808594,-0.3125,-0.3125,-0.125,0.0,0.0,0.0
1696291602859,-0.35351562,0.8798828,0.28222656,-0.4375,-0.375,0.0625,0.0,0.0,0.0
1696291602889,-0.35839844,0.88964844,0.26757812,-0.375,-0.3125,0.0625,0.0,0.0,0.0
1696291602920,-0.3408203,0.8886719,0.26660156,-0.25,-0.15625,0.0,0.0,0.0,0.0
1696291602980,-0.35253906,0.8847656,0.27246094,0.15625,-0.03125,0.0625,0.0,0.0,0.0
1696291603008,-0.35742188,0.88671875,0.26660156,-0.625,-0.3125,-0.125,0.0,0.0,0.0
1696291603038,-0.3623047,0.88183594,0.265625,-0.75,-0.375,-0.0625,0.0,0.0,0.0
1696291603100,-0.3544922,0.8828125,0.26660156,-0.25,-0.15625,0.1875,0.0,0.0,0.0
1696291603130,-0.35253906,0.88183594,0.2607422,-0.3125,-0.15625,0.0625,0.0,0.0,0.0
1696291603157,-0.35351562,0.88671875,0.26660156,-0.1875,-0.4375,-0.1875,0.0,0.0,0.0
1696291603225,-0.35742188,0.8808594,0.2890625,-0.4375,-0.3125,-0.125,0.0,0.0,0.0
1696291603251,-0.3544922,0.89453125,0.2734375,-0.5,-0.3125,-0.0625,0.0,0.0,0.0
1696291603282,-0.36132812,0.8798828,0.25878906,0.21875,-0.09375,-0.125,-36.4375,1.375,-192.1875
1696291603341,-0.35839844,0.8847656,0.2607422,-0.15625,0.15625,0.125,0.0,0.0,0.0
1696291603369,-0.3564453,0.8857422,0.27148438,-0.5,-0.03125,0.25,0.0,0.0,0.0
1696291603398,-0.35351562,0.88964844,0.2626953,-0.25,-0.15625,0.125,0.0,0.0,0.0
1696291603466,-0.36132812,0.88183594,0.26464844,-0.1875,-0.15625,-0.0625,0.0,0.0,0.0
1696291603488,-0.35839844,0.8857422,0.27246094,-0.09375,-0.09375,-0.1875,0.0,0.0,0.0
1696291603520,-0.35546875,0.87402344,0.2685547,-0.3125,-0.1875,-0.125,0.0,0.0,0.0
1696291603580,-0.35742188,0.89453125,0.26757812,-0.25,-0.15625,0.0625,0.0,0.0,0.0
1696291603611,-0.35253906,0.88964844,0.2763672,-0.25,-0.09375,0.375,0.0,0.0,0.0
1696291603670,-0.35253906,0.8955078,0.25878906,-0.4375,-0.25,0.25,0.0,0.0,0.0
1696291603699,-0.36621094,0.88964844,0.26660156,-0.625,-0.5,0.0,0.0,0.0,0.0
1696291603732,-0.3564453,0.8779297,0.2685547,-0.1875,-0.09375,0.0,0.0,0.0,0.0
1696291603759,-0.3623047,0.88671875,0.26171875,-0.375,0.03125,0.1875,-37.8125,1.5625,-190.5625
1696291603819,-0.3544922,0.890625,0.27539062,-0.3125,-0.15625,0.125,0.0,0.0,0.0
1696291603851,-0.3515625,0.88671875,0.2578125,0.21875,-0.15625,-0.0625,0.0,0.0,0.0
1696291603879,-0.36035156,0.8847656,0.26660156,-0.5,-0.375,0.0,0.0,0.0,0.0
1696291603940,-0.36523438,0.88671875,0.2734375,-0.25,-0.15625,-0.0625,0.0,0.0,0.0
1696291603971,-0.36132812,0.88964844,0.26171875,-0.3125,-0.1875,0.0625,0.0,0.0,0.0
1696291603998,-0.3515625,0.8925781,0.2578125,-0.5,-0.03125,0.3125,0.0,0.0,0.0
1696291604062,-0.3564453,0.8769531,0.27148438,-0.6875,0.03125,0.4375,0.0,0.0,0.0
1696291604090,-0.3466797,0.8955078,0.27441406,-0.375,-0.25,0.125,0.0,0.0,0.0
1696291604125,-0.36035156,0.87597656,0.26464844,-0.09375,-0.15625,0.0,0.0,0.0,0.0
1696291604183,-0.35839844,0.8857422,0.26660156,-0.15625,-0.1875,0.0,0.0,0.0,0.0
1696291604208,-0.35742188,0.890625,0.27734375,-0.03125,-0.15625,-0.0625,0.0,0.0,0.0
1696291604240,-0.359375,0.8876953,0.2705078,-0.03125,0.09375,-0.0625,0.0,0.0,0.0
1696291604298,-0.3486328,0.8886719,0.25585938,0.09375,0.03125,0.1875,-37.375,2.3125,-192.625
1696291604331,-0.35546875,0.8876953,0.2529297,-0.375,-0.1875,-0.0625,0.0,0.0,0.0
1696291604358,-0.36035156,0.8798828,0.265625,-0.1875,-0.3125,-0.0625,0.0,0.0,0.0
1696291604418,-0.359375,0.88671875,0.2685547,0.21875,0.28125,-0.3125,0.0,0.0,0.0
1696291604449,-0.35351562,0.87890625,0.25,-0.375,0.09375,0.25,0.0,0.0,0.0
1696291604479,-0.3564453,0.88378906,0.2548828,0.09375,-0.25,0.0625,0.0,0.0,0.0
1696291604538,-0.3486328,0.890625,0.25878906,0.03125,-0.3125,0.0,0.0,0.0,0.0
1696291604571,-0.375,0.8798828,0.24804688,-0.25,-0.3125,-0.125,0.0,0.0,0.0
1696291604597,-0.35839844,0.8955078,0.25976562,-0.3125,-0.15625,-0.0625,0.0,0.0,0.0
1696291604662,-0.3701172,0.8876953,0.26953125,-0.1875,-0.375,0.1875,0.0,0.0,0.0
1696291604688,-0.3564453,0.890625,0.26660156,-0.625,-0.3125,0.3125,0.0,0.0,0.0
1696291604721,-0.3515625,0.88964844,0.27441406,-0.875,-0.15625,0.3125,0.0,0.0,0.0
1696291604785,-0.35253906,0.8847656,0.26171875,-0.375,-0.5625,0.1875,-36.75,1.5625,-192.9375
1696291604810,-0.35351562,0.8886719,0.28515625,-0.5,-0.5625,0.0,0.0,0.0,0.0
1696291604842,-0.35839844,0.8935547,0.26464844,-0.8125,-0.75,-0.0625,0.0,0.0,0.0
1696291604899,-0.36328125,0.88378906,0.2548828,-0.5,-0.625,0.0,0.0,0.0,0.0
1696291604929,-0.3564453,0.88964844,0.2529297,-0.625,-0.3125,0.1875,0.0,0.0,0.0
1696291604958,-0.35839844,0.8857422,0.2626953,-1.0,-0.3125,0.375,0.0,0.0,0.0
1696291605021,-0.36523438,0.8857422,0.28027344,-1.25,-1.0,0.125,0.0,0.0,0.0
1696291605050,-0.3720703,0.8769531,0.2578125,-1.375,-1.25,-0.125,0.0,0.0,0.0
1696291605079,-0.35253906,0.87890625,0.28808594,-0.75,-0.4375,-0.0625,0.0,0.0,0.0
1696291605139,-0.35351562,0.8925781,0.26953125,-1.0,-0.5,0.1875,0.0,0.0,0.0
1696291605171,-0.35253906,0.8876953,0.2607422,-0.625,-0.875,0.3125,0.0,0.0,0.0
1696291605199,-0.3544922,0.87402344,0.26953125,-0.8125,-0.75,0.3125,0.0,0.0,0.0
1696291605259,-0.359375,0.8886719,0.2578125,-1.125,-0.75,0.1875,0.0,0.0,0.0
1696291605287,-0.34960938,0.8886719,0.26464844,-0.6875,-0.6875,0.0,-37.0625,1.25,-191.875
1696291605319,-0.36132812,0.89453125,0.26953125,-0.5,-0.5,0.0625,0.0,0.0,0.0
1696291605379,-0.3515625,0.8828125,0.26367188,-0.6875,-0.25,0.1875,0.0,0.0,0.0
1696291605414,-0.35351562,0.88183594,0.2626953,-0.75,-0.1875,0.1875,0.0,0.0,0.0
1696291605439,-0.36035156,0.8876953,0.25,-0.3125,-0.3125,0.125,0.0,0.0,0.0
1696291605500,-0.35351562,0.8876953,0.2763672,-0.3125,-0.3125,0.0,0.0,0.0,0.0
1696291605528,-0.36035156,0.8876953,0.25683594,-0.4375,-0.3125,0.0,0.0,0.0,0.0
1696291605561,-0.35351562,0.88964844,0.27246094,-0.375,-0.3125,0.0,0.0,0.0,0.0
1696291605621,-0.36132812,0.8876953,0.2763672,-0.3125,-0.1875,0.0625,0.0,0.0,0.0
1696291605651,-0.35253906,0.8886719,0.2734375,-0.75,-0.3125,0.25,0.0,0.0,0.0
1696291605679,-0.3642578,0.8876953,0.27441406,-0.6875,-0.5,0.1875,0.0,0.0,0.0
1696291605743,-0.35742188,0.87890625,0.27539062,-0.75,-0.625,-0.0625,0.0,0.0,0.0
1696291605769,-0.35253906,0.87890625,0.27441406,-0.4375,-0.375,0.0,-37.375,0.5,-192.9375
1696291605800,-0.35351562,0.89160156,0.28320312,-0.875,-0.1875,0.3125,0.0,0.0,0.0
1696291605860,-0.34765625,0.88183594,0.2783203,-0.5625,-0.5,0.3125,0.0,0.0,0.0
1696291605887,-0.35546875,0.8808594,0.2763672,-0.1875,-0.375,0.0,0.0,0.0,0.0
1696291605920,-0.3564453,0.88183594,0.27246094,-0.4375,-0.375,-0.125,0.0,0.0,0.0
1696291605985,-0.3564453,0.88378906,0.26464844,-0.25,-0.15625,0.0625,0.0,0.0,0.0
1696291606009,-0.3564453,0.88183594,0.2763672,-0.15625,-0.1875,0.125,0.0,0.0,0.0
1696291606043,-0.3642578,0.88964844,0.26464844,-0.5,-0.375,0.25,0.0,0.0,0.0
1696291606103,-0.35253906,0.8847656,0.26953125,-0.875,-0.25,0.25,0.0,0.0,0.0
1696291606129,-0.3515625,0.8769531,0.25585938,-0.03125,-0.09375,0.0625,0.0,0.0,0.0
1696291606161,-0.36035156,0.88964844,0.26757812,-0.3125,-0.25,0.0625,0.0,0.0,0.0
1696291606223,-0.35351562,0.88378906,0.2734375,-0.5625,-0.4375,-0.1875,0.0,0.0,0.0
1696291606251,-0.35351562,0.8857422,0.28222656,-0.09375,-0.25,0.125,0.0,0.0,0.0
1696291606281,-0.35058594,0.8886719,0.26367188,-0.3125,-0.15625,0.25,-36.4375,1.375,-192.1875
1696291606339,-0.35742188,0.8876953,0.26464844,-0.625,-0.3125,0.125,0.0,0.0,0.0
1696291606367,-0.359375,0.8964844,0.26171875,-0.09375,-0.15625,0.125,0.0,0.0,0.0
1696291606400,-0.359375,0.8886719,0.27734375,-0.5,-0.4375,0.0,0.0,0.0,0.0
1696291606459,-0.35253906,0.8798828,0.27246094,-0.5625,-0.4375,0.125,0.0,0.0,0.0
1696291606488,-0.35742188,0.8808594,0.28125,-0.3125,-0.1875,0.1875,0.0,0.0,0.0
1696291606521,-0.35351562,0.8886719,0.25976562,-0.5625,-0.25,0.3125,0.0,0.0,0.0
1696291606585,-0.359375,0.88964844,0.26953125,-0.09375,-0.1875,0.0625,0.0,0.0,0.0
1696291606610,-0.36132812,0.8886719,0.27539062,-0.3125,-0.3125,-0.0625,0.0,0.0,0.0
1696291606642,-0.35058594,0.88671875,0.2734375,-0.3125,-0.25,-0.0625,0.0,0.0,0.0
1696291606702,-0.35253906,0.890625,0.2783203,-0.1875,-0.3125,0.0625,0.0,0.0,0.0
1696291606729,-0.3564453,0.88671875,0.26171875,-0.25,-0.15625,0.125,0.0,0.0,0.0
1696291606760,-0.35351562,0.8847656,0.27929688,-0.4375,-0.25,0.1875,-37.0625,2.0,-191.875
1696291606822,-0.3486328,0.8964844,0.27929688,-0.15625,-0.09375,-0.0625,0.0,0.0,0.0
1696291606851,-0.35546875,0.88964844,0.2578125,-0.03125,-0.1875,-0.1875,0.0,0.0,0.0
1696291606879,-0.35839844,0.88183594,0.26464844,-0.0625,-0.03125,-0.15625,0.0,0.0,0.0
1696291606940,-0.36035156,0.8857422,0.25976562,0.5625,0.03125,-0.15625,0.0,0.0,0.0
1696291606974,-0.3515625,0.8886719,0.2626953,0.59375,0.3125,-0.21875,0.0,0.0,0.0
1696291607003,-0.3544922,0.8857422,0.25683594,0.1875,0.3125,-0.15625,0.0,0.0,0.0
1696291607059,-0.36328125,0.8828125,0.2734375,0.125,0.125,0.03125,0.0,0.0,0.0
1696291607088,-0.36621094,0.89160156,0.2626953,0.1875,-0.21875,0.03125,0.0,0.0,0.0
1696291607118,-0.35742188,0.89160156,0.2705078,-0.125,-0.15625,-0.15625,0.0,0.0,0.0
1696291607208,-0.3486328,0.8808594,0.2783203,0.1875,0.3125,-0.03125,0.0,0.0,0.0
1696291607211,-0.34960938,0.89453125,0.2763672,0.125,0.25,0.15625,0.0,0.0,0.0
1696291607240,-0.3544922,0.8886719,0.2626953,0.4375,-0.09375,0.03125,0.0,0.0,0.0
1696291607302,-0.36621094,0.88671875,0.26953125,0.125,-0.09375,-0.21875,-35.875,1.0625,-192.1875
1696291607334,-0.3564453,0.8769531,0.28320312,0.59375,0.25,-0.40625,0.0,0.0,0.0
1696291607357,-0.36621094,0.88378906,0.27929688,0.5625,0.375,-0.09375,0.0,0.0,0.0
1696291607423,-0.34472656,0.8857422,0.2626953,0.25,0.03125,-0.09375,0.0,0.0,0.0
1696291607449,-0.35546875,0.8886719,0.27148438,-0.0625,0.0625,-0.03125,0.0,0.0,0.0
1696291607478,-0.35351562,0.88671875,0.27734375,0.125,0.25,0.03125,0.0,0.0,0.0
1696291607538,-0.34765625,0.88964844,0.26367188,0.0625,0.0625,0.03125,0.0,0.0,0.0
1696291607570,-0.36035156,0.8828125,0.27148438,0.0625,-0.03125,-0.09375,0.0,0.0,0.0
1696291607599,-0.36035156,0.8828125,0.27929688,0.125,0.03125,-0.28125,0.0,0.0,0.0
1696291607659,-0.3515625,0.87890625,0.26953125,0.375,0.125,-0.21875,0.0,0.0,0.0
1696291607692,-0.36035156,0.8798828,0.2734375,0.125,0.375,0.09375,0.0,0.0,0.0
1696291607780,-0.35058594,0.8925781,0.26367188,0.5625,0.4375,0.15625,-37.625,1.375,-191.125
1696291607783,-0.3564453,0.8925781,0.26660156,0.25,0.125,-0.15625,0.0,0.0,0.0
1696291607808,-0.3642578,0.8886719,0.2734375,0.125,0.03125,-0.34375,0.0,0.0,0.0
1696291607845,-0.35253906,0.89160156,0.28027344,0.4375,0.375,0.03125,0.0,0.0,0.0
1696291607899,-0.3486328,0.89160156,0.26464844,0.125,0.1875,0.09375,0.0,0.0,0.0
1696291607931,-0.36035156,0.87890625,0.27539062,0.5,0.0625,-0.09375,0.0,0.0,0.0
1696291607965,-0.35742188,0.88964844,0.265625,0.1875,0.125,-0.09375,0.0,0.0,0.0
1696291608020,-0.3671875,0.87890625,0.26953125,0.1875,0.25,-0.15625,0.0,0.0,0.0
1696291608071,-0.36621094,0.8876953,0.27246094,0.375,0.1875,-0.09375,0.0,0.0,0.0
1696291608086,-0.35839844,0.89160156,0.27734375,0.71875,0.125,-0.09375,0.0,0.0,0.0
1696291608140,-0.3515625,0.8886719,0.26953125,0.0,0.5,0.03125,0.0,0.0,0.0
1696291608170,-0.34375,0.88378906,0.2705078,0.0625,0.0625,0.03125,0.0,0.0,0.0
1696291608198,-0.3623047,0.88378906,0.25976562,0.25,0.0625,-0.03125,0.0,0.0,0.0
1696291608262,-0.35839844,0.8876953,0.26367188,0.0625,0.0625,-0.15625,0.0,0.0,0.0
1696291608294,-0.35839844,0.8886719,0.27148438,0.0625,0.03125,-0.15625,-36.875,1.8125,-192.1875
1696291608318,-0.36132812,0.8886719,0.2529297,0.0625,0.0625,-0.03125,0.0,0.0,0.0
1696291608381,-0.35351562,0.88183594,0.27539062,0.0625,0.0625,0.09375,0.0,0.0,0.0
1696291608415,-0.3544922,0.87890625,0.26660156,0.25,0.25,0.09375,0.0,0.0,0.0
1696291608439,-0.3564453,0.88964844,0.27929688,-0.1875,-0.28125,-0.21875,0.0,0.0,0.0
1696291608499,-0.35742188,0.87890625,0.27148438,0.0625,-0.09375,-0.15625,0.0,0.0,0.0
1696291608533,-0.36035156,0.8886719,0.2705078,-0.25,0.1875,0.15625,0.0,0.0,0.0
1696291608558,-0.35351562,0.89746094,0.265625,0.0625,-0.21875,0.09375,0.0,0.0,0.0
1696291608620,-0.359375,0.8847656,0.26660156,-0.0625,-0.21875,0.09375,0.0,0.0,0.0
1696291608649,-0.36621094,0.8847656,0.27148438,-0.375,-0.34375,-0.15625,0.0,0.0,0.0
1696291608681,-0.36816406,0.89160156,0.25878906,-0.375,-0.34375,-0.03125,0.0,0.0,0.0
1696291608741,-0.35546875,0.88183594,0.26367188,-0.1875,-0.40625,0.09375,0.0,0.0,0.0
1696291608771,-0.359375,0.88964844,0.27246094,-0.75,-0.21875,0.15625,-37.625,2.875,-192.8125
1696291608798,-0.3515625,0.88378906,0.265625,-0.625,-0.21875,0.3125,0.0,0.0,0.0
1696291608858,-0.3564453,0.8847656,0.25683594,-0.3125,-0.40625,0.15625,0.0,0.0,0.0
1696291608889,-0.3466797,0.89160156,0.2705078,-0.625,-0.40625,-0.15625,0.0,0.0,0.0
1696291608918,-0.36035156,0.88378906,0.27929688,-0.25,-0.53125,-0.09375,0.0,0.0,0.0
1696291608952,-0.35546875,0.8847656,0.26464844,-0.1875,-0.28125,0.03125,0.0,0.0,0.0
1696291609017,-0.35351562,0.8876953,0.2685547,-0.0625,-0.28125,-0.03125,0.0,0.0,0.0
1696291609039,-0.3564453,0.8808594,0.27441406,-0.375,0.03125,0.09375,0.0,0.0,0.0
1696291609070,-0.36035156,0.8828125,0.2685547,0.0625,-0.09375,0.09375,0.0,0.0,0.0
1696291609129,-0.3564453,0.8984375,0.26367188,0.0,-0.46875,-0.09375,0.0,0.0,0.0
1696291609159,-0.3486328,0.8857422,0.27246094,-0.25,-0.09375,-0.21875,0.0,0.0,0.0
1696291609189,-0.35742188,0.88378906,0.2626953,-0.3125,-0.03125,0.21875,0.0,0.0,0.0
1696291609249,-0.35351562,0.88183594,0.2705078,0.0625,-0.15625,0.09375,0.0,0.0,0.0
1696291609280,-0.36132812,0.8769531,0.2705078,-0.0625,-0.28125,-0.15625,-34.9375,2.75,-192.625
1696291609310,-0.35546875,0.88183594,0.26367188,-0.25,-0.34375,-0.03125,0.0,0.0,0.0
1696291609370,-0.34960938,0.88183594,0.25878906,-0.0625,-0.09375,0.09375,0.0,0.0,0.0
1696291609402,-0.36914062,0.88964844,0.2685547,0.0625,-0.03125,0.15625,0.0,0.0,0.0
1696291609428,-0.35253906,0.88671875,0.2685547,-0.5,-0.15625,0.03125,0.0,0.0,0.0
1696291609490,-0.35546875,0.8847656,0.27929688,-0.6875,-0.15625,0.15625,0.0,0.0,0.0
1696291609520,-0.35253906,0.8828125,0.25878906,-0.0625,0.0,0.0625,0.0,0.0,0.0
1696291609548,-0.3486328,0.875,0.28125,0.125,-0.0625,-0.0625,0.0,0.0,0.0
1696291609629,-0.35546875,0.8769531,0.27734375,0.25,-0.0625,-0.1875,0.0,0.0,0.0
1696291609639,-0.35058594,0.89160156,0.265625,0.125,0.0,0.0625,0.0,0.0,0.0
1696291609670,-0.35546875,0.890625,0.29003906,0.1875,0.125,0.0625,0.0,0.0,0.0
1696291609729,-0.35546875,0.8876953,0.26660156,0.34375,0.375,0.0,0.0,0.0,0.0
1696291609762,-0.35351562,0.8886719,0.26464844,0.25,0.25,0.0,-35.875,1.375,-192.8125
1696291609787,-0.359375,0.8857422,0.27734375,0.1875,0.0,-0.125,0.0,0.0,0.0
1696291609886,-0.3515625,0.8925781,0.27441406,0.125,0.0625,-0.125,0.0,0.0,0.0
1696291609890,-0.35351562,0.89160156,0.2783203,-0.0625,0.25,0.1875,0.0,0.0,0.0
1696291609907,-0.35253906,0.8808594,0.26367188,0.1875,0.1875,0.21875,0.0,0.0,0.0
1696291609968,-0.359375,0.8847656,0.27929688,0.25,0.25,0.0625,0.0,0.0,0.0
1696291610001,-0.35742188,0.8808594,0.265625,0.125,0.0625,-0.1875,0.0,0.0,0.0
1696291610028,-0.35253906,0.87890625,0.2734375,0.1875,0.1875,-0.125,0.0,0.0,0.0
1696291610089,-0.35742188,0.8886719,0.26660156,0.25,0.1875,0.0625,0.0,0.0,0.0
1696291610123,-0.35742188,0.8857422,0.29003906,0.1875,0.125,-0.125,0.0,0.0,0.0
1696291610148,-0.35742188,0.8857422,0.26367188,-0.0625,0.1875,0.21875,0.0,0.0,0.0
1696291610211,-0.359375,0.89453125,0.26757812,0.46875,0.25,0.0,0.0,0.0,0.0
1696291610240,-0.3564453,0.8828125,0.2861328,0.34375,0.25,-0.1875,0.0,0.0,0.0
1696291610268,-0.35839844,0.88671875,0.25878906,0.46875,0.125,-0.25,-37.625,2.125,-191.125
1696291610333,-0.35058594,0.88378906,0.26953125,0.40625,0.3125,-0.125,0.0,0.0,0.0
1696291610361,-0.36035156,0.8847656,0.26953125,0.3125,0.1875,0.125,0.0,0.0,0.0
1696291610392,-0.3544922,0.87890625,0.26660156,0.25,0.1875,0.0,0.0,0.0,0.0
1696291610452,-0.3466797,0.8886719,0.26660156,0.25,0.0625,-0.125,0.0,0.0,0.0
1696291610481,-0.359375,0.8886719,0.28320312,0.25,-0.0625,-0.0625,0.0,0.0,0.0
1696291610508,-0.3486328,0.89746094,0.2783203,0.3125,0.375,-0.1875,0.0,0.0,0.0
1696291610572,-0.3486328,0.890625,0.27539062,0.40625,0.625,0.0,0.0,0.0,0.0
1696291610601,-0.34960938,0.8886719,0.2734375,0.40625,0.25,-0.0625,0.0,0.0,0.0
1696291610627,-0.359375,0.87597656,0.2705078,1.21875,0.3125,-0.375,0.0,0.0,0.0
1696291610693,-0.35742188,0.8798828,0.2578125,0.96875,0.6875,-0.5,0.0,0.0,0.0
1696291610725,-0.36035156,0.8935547,0.26171875,0.65625,0.71875,-0.5,0.0,0.0,0.0
1696291610779,-0.35742188,0.8925781,0.2685547,0.96875,0.6875,-0.1875,-36.3125,2.0,-193.6875
1696291610811,-0.359375,0.88671875,0.2705078,0.59375,0.5625,0.0625,0.0,0.0,0.0
1696291610839,-0.35351562,0.8808594,0.26464844,0.1875,0.375,0.1875,0.0,0.0,0.0
1696291610871,-0.35839844,0.88183594,0.26757812,0.3125,0.25,-0.375,0.0,0.0,0.0
1696291610930,-0.3623047,0.88378906,0.26367188,0.65625,0.375,-0.25,0.0,0.0,0.0
1696291610959,-0.3564453,0.8798828,0.26660156,0.59375,0.4375,-0.25,0.0,0.0,0.0
1696291610991,-0.35351562,0.9003906,0.2685547,0.40625,0.25,-0.125,0.0,0.0,0.0
1696291611051,-0.35351562,0.890625,0.26757812,0.46875,0.4375,0.0625,0.0,0.0,0.0
1696291611080,-0.35253906,0.8876953,0.265625,0.1875,0.375,0.125,0.0,0.0,0.0
1696291611109,-0.35742188,0.89160156,0.25683594,0.34375,0.4375,-0.125,0.0,0.0,0.0
1696291611170,-0.3564453,0.8857422,0.26464844,0.40625,0.125,-0.4375,0.0,0.0,0.0
1696291611225,-0.359375,0.8808594,0.2783203,0.90625,0.6875,-0.25,0.0,0.0,0.0
1696291611228,-0.35253906,0.8935547,0.25878906,0.53125,0.84375,-0.0625,0.0,0.0,0.0
1696291611289,-0.359375,0.88964844,0.27539062,0.25,0.125,0.0,-35.875,2.125,-190.6875
1696291611324,-0.35058594,0.8857422,0.26171875,0.59375,0.1875,-0.1875,0.0,0.0,0.0
1696291611349,-0.3623047,0.8876953,0.2783203,0.3125,0.4375,-0.1875,0.0,0.0,0.0
1696291611411,-0.3623047,0.89160156,0.26757812,0.25,0.3125,-0.1875,0.0,0.0,0.0
1696291611441,-0.359375,0.8886719,0.27246094,0.46875,0.1875,0.125,0.0,0.0,0.0
1696291611469,-0.3544922,0.8808594,0.27734375,-0.0625,0.0625,0.0625,0.0,0.0,0.0
1696291611528,-0.34960938,0.8876953,0.2626953,0.0,0.4375,0.1875,0.0,0.0,0.0
1696291611561,-0.35253906,0.89160156,0.26464844,0.78125,0.3125,0.0,0.0,0.0,0.0
1696291611588,-0.35742188,0.8886719,0.27148438,0.3125,0.0625,-0.25,0.0,0.0,0.0
1696291611649,-0.36035156,0.8925781,0.2548828,-0.125,0.0625,-0.125,0.0,0.0,0.0
1696291611678,-0.3671875,0.88378906,0.25878906,0.40625,0.375,-0.125,0.0,0.0,0.0
1696291611708,-0.36132812,0.89160156,0.2705078,0.0625,0.125,0.0,0.0,0.0,0.0
1696291611815,-0.35546875,0.8886719,0.26367188,-0.0625,0.1875,0.21875,-35.5625,1.5625,-191.625
1696291611820,-0.35546875,0.8847656,0.25878906,-0.25,-0.1875,0.1875,0.0,0.0,0.0
1696291611830,-0.35839844,0.8886719,0.27148438,0.0625,-0.3125,-0.0625,0.0,0.0,0.0
1696291611889,-0.36523438,0.88671875,0.2685547,0.0,0.25,-0.125,0.0,0.0,0.0
1696291611919,-0.35742188,0.88671875,0.27441406,-0.1875,0.375,0.1875,0.0,0.0,0.0
1696291611948,-0.35351562,0.8935547,0.26367188,0.53125,-0.125,0.0,0.0,0.0,0.0
1696291612008,-0.35351562,0.89453125,0.2841797,0.125,-0.0625,-0.0625,0.0,0.0,0.0
1696291612039,-0.3564453,0.88183594,0.2548828,-0.3125,-0.1875,-0.1875,0.0,0.0,0.0
1696291612071,-0.35839844,0.8847656,0.26757812,0.0625,-0.0625,0.0,0.0,0.0,0.0
1696291612129,-0.35546875,0.890625,0.2626953,0.125,0.0625,0.1875,0.0,0.0,0.0
1696291612163,-0.3564453,0.9013672,0.27246094,-0.90625,-0.28125,0.03125,0.0,0.0,0.0
1696291612191,-0.3515625,0.8876953,0.2626953,-0.78125,-0.15625,0.34375,0.0,0.0,0.0
1696291612255,-0.34960938,0.8876953,0.2685547,-0.25,-0.21875,0.15625,0.0,0.0,0.0
1696291612280,-0.3564453,0.8886719,0.26953125,-0.6875,-0.53125,0.03125,-35.25,2.0,-190.875
1696291612338,-0.3623047,0.87597656,0.25683594,-0.4375,-0.40625,-0.03125,0.0,0.0,0.0
1696291612369,-0.35253906,0.89160156,0.27148438,0.0625,-0.21875,-0.21875,0.0,0.0,0.0
1696291612397,-0.35546875,0.8984375,0.27148438,-0.25,0.03125,0.03125,0.0,0.0,0.0
1696291612436,-0.35253906,0.88964844,0.26464844,-0.125,0.15625,0.21875,0.0,0.0,0.0
1696291612489,-0.35546875,0.89160156,0.27148438,-0.1875,-0.21875,0.09375,0.0,0.0,0.0
1696291612518,-0.35839844,0.88183594,0.27929688,-0.3125,-0.34375,-0.21875,0.0,0.0,0.0
1696291612548,-0.35546875,0.8798828,0.26757812,-0.0625,0.03125,-0.15625,0.0,0.0,0.0
1696291612609,-0.36035156,0.8886719,0.27148438,-0.75,-0.15625,0.15625,0.0,0.0,0.0
1696291612639,-0.35253906,0.8886719,0.2763672,0.1875,-0.28125,0.28125,0.0,0.0,0.0
1696291612675,-0.35058594,0.8955078,0.26660156,-0.125,-0.15625,0.03125,0.0,0.0,0.0
1696291612732,-0.3544922,0.8847656,0.27441406,-0.125,-0.21875,-0.15625,0.0,0.0,0.0
1696291612760,-0.34765625,0.8798828,0.2685547,0.0,0.03125,0.09375,-35.5625,0.5,-192.375
1696291612788,-0.35058594,0.8876953,0.27441406,-0.125,-0.09375,0.03125,0.0,0.0,0.0
1696291612855,-0.3515625,0.88183594,0.28027344,-0.3125,0.03125,0.15625,0.0,0.0,0.0
1696291612878,-0.3515625,0.8847656,0.26953125,-0.3125,0.09375,0.15625,0.0,0.0,0.0
1696291612908,-0.3564453,0.8964844,0.26464844,0.0625,-0.03125,-0.03125,0.0,0.0,0.0
1696291612971,-0.35839844,0.8808594,0.28222656,-0.0625,-0.03125,-0.15625,0.0,0.0,0.0
1696291612999,-0.35351562,0.8857422,0.25390625,-0.1875,-0.15625,-0.09375,0.0,0.0,0.0
1696291613058,-0.35058594,0.8925781,0.26660156,-0.0625,-0.09375,0.03125,0.0,0.0,0.0
1696291613090,-0.36035156,0.8886719,0.2734375,-0.1875,-0.09375,0.09375,0.0,0.0,0.0
1696291613118,-0.3486328,0.8925781,0.27539062,-0.375,-0.15625,0.09375,0.0,0.0,0.0
1696291613150,-0.36035156,0.8779297,0.25976562,-0.0625,-0.09375,0.15625,0.0,0.0,0.0
1696291613209,-0.35839844,0.88671875,0.27148438,0.0,-0.15625,-0.21875,0.0,0.0,0.0
1696291613241,-0.3408203,0.88378906,0.27929688,-0.0625,0.09375,-0.09375,0.0,0.0,0.0
1696291613269,-0.35351562,0.88183594,0.2734375,-0.0625,0.15625,0.15625,-36.125,1.375,-191.4375
1696291613328,-0.34765625,0.88378906,0.27441406,0.0625,0.03125,0.03125,0.0,0.0,0.0
1696291613359,-0.359375,0.88378906,0.26757812,0.0,0.03125,-0.21875,0.0,0.0,0.0
1696291613388,-0.35742188,0.88183594,0.2685547,0.0,0.03125,-0.21875,0.0,0.0,0.0
1696291613454,-0.36035156,0.89453125,0.28320312,-0.0625,-0.09375,-0.21875,0.0,0.0,0.0
1696291613483,-0.36523438,0.8876953,0.2734375,0.1875,0.09375,0.03125,0.0,0.0,0.0
1696291613509,-0.35351562,0.8886719,0.2919922,0.0625,0.15625,0.03125,0.0,0.0,0.0
1696291613570,-0.35253906,0.88378906,0.26464844,-0.25,0.09375,0.15625,0.0,0.0,0.0
1696291613599,-0.35058594,0.8857422,0.25195312,-0.125,0.03125,0.03125,0.0,0.0,0.0
1696291613629,-0.3486328,0.88183594,0.2734375,0.25,0.03125,-0.09375,0.0,0.0,0.0
1696291613690,-0.34472656,0.8847656,0.28222656,0.0625,0.28125,0.03125,0.0,0.0,0.0
1696291613727,-0.3544922,0.8828125,0.27246094,0.71875,0.53125,-0.03125,0.0,0.0,0.0
1696291613748,-0.35058594,0.88964844,0.28125,0.25,0.34375,-0.15625,-37.0625,0.9375,-191.625
1696291613814,-0.36132812,0.87890625,0.26953125,0.4375,0.15625,-0.15625,0.0,0.0,0.0
1696291613839,-0.36328125,0.88378906,0.25097656,1.09375,0.46875,-0.34375,0.0,0.0,0.0
1696291613870,-0.35546875,0.8847656,0.27246094,0.5,0.28125,-0.40625,0.0,0.0,0.0
1696291613936,-0.36328125,0.8798828,0.27441406,0.4375,0.5625,-0.09375,0.0,0.0,0.0
1696291613959,-0.35058594,0.89160156,0.27148438,0.0,0.40625,0.28125,0.0,0.0,0.0
1696291613991,-0.35058594,0.8857422,0.2626953,-0.0625,0.09375,-0.03125,0.0,0.0,0.0
1696291614048,-0.35253906,0.8769531,0.2734375,0.59375,0.21875,-0.21875,0.0,0.0,0.0
1696291614080,-0.3564453,0.8798828,0.2734375,0.3125,0.09375,-0.5,0.0,0.0,0.0
1696291614110,-0.36035156,0.8701172,0.2626953,0.25,0.21875,-0.28125,0.0,0.0,0.0
1696291614173,-0.3623047,0.88671875,0.26367188,0.65625,0.15625,0.28125,0.0,0.0,0.0
1696291614199,-0.35351562,0.87890625,0.2607422,-0.25,0.15625,0.21875,0.0,0.0,0.0
1696291614227,-0.3515625,0.8876953,0.26953125,-0.25,0.21875,0.34375,0.0,0.0,0.0
1696291614289,-0.3515625,0.88964844,0.2685547,-0.125,-0.09375,0.03125,-35.875,1.0625,-191.125
1696291614319,-0.35253906,0.88378906,0.25585938,-0.4375,-0.09375,-0.21875,0.0,0.0,0.0
1696291614347,-0.3720703,0.8808594,0.28515625,-0.25,-0.21875,-0.09375,0.0,0.0,0.0
1696291614410,-0.36132812,0.88183594,0.26953125,0.125,0.21875,0.09375,0.0,0.0,0.0
1696291614441,-0.359375,0.8828125,0.28027344,0.3125,0.53125,0.15625,0.0,0.0,0.0
1696291614468,-0.35351562,0.8886719,0.2890625,0.375,0.625,-0.03125,0.0,0.0,0.0
1696291614535,-0.36035156,0.8925781,0.26757812,0.59375,0.15625,-0.21875,0.0,0.0,0.0
1696291614567,-0.35546875,0.88671875,0.26660156,0.65625,0.15625,-0.34375,0.0,0.0,0.0
1696291614589,-0.359375,0.8730469,0.2578125,0.5,0.625,-0.40625,0.0,0.0,0.0
1696291614650,-0.3466797,0.88964844,0.26464844,0.5,0.46875,0.03125,0.0,0.0,0.0
1696291614681,-0.36132812,0.8847656,0.27246094,0.84375,0.15625,-0.03125,0.0,0.0,0.0
1696291614710,-0.36328125,0.87890625,0.24511719,0.3125,0.21875,-0.15625,0.0,0.0,0.0
1696291614770,-0.36132812,0.8769531,0.27246094,0.1875,0.03125,-0.28125,-37.1875,0.625,-191.4375
1696291614802,-0.35742188,0.8857422,0.26660156,0.125,0.15625,-0.03125,0.0,0.0,0.0
1696291614829,-0.36523438,0.8886719,0.27246094,0.0,-0.09375,-0.03125,0.0,0.0,0.0
1696291614904,-0.3564453,0.8876953,0.28320312,-0.125,-0.03125,0.09375,0.0,0.0,0.0
1696291614919,-0.35253906,0.89160156,0.26757812,-0.5,0.09375,0.15625,0.0,0.0,0.0
1696291614949,-0.35839844,0.88183594,0.26367188,-0.125,-0.09375,0.03125,0.0,0.0,0.0
1696291615008,-0.35742188,0.8828125,0.23828125,0.0,-0.03125,-0.15625,0.0,0.0,0.0
1696291615039,-0.3623047,0.89453125,0.26367188,0.0,0.03125,-0.15625,0.0,0.0,0.0
1696291615068,-0.36035156,0.88671875,0.2529297,0.125,0.09375,-0.21875,0.0,0.0,0.0
1696291615131,-0.3623047,0.8955078,0.2578125,0.0,0.03125,-0.03125,0.0,0.0,0.0
1696291615160,-0.35839844,0.89453125,0.25878906,-0.0625,-0.03125,0.09375,0.0,0.0,0.0
1696291615188,-0.3515625,0.88964844,0.25976562,-0.375,-0.09375,0.03125,0.0,0.0,0.0
1696291615249,-0.3671875,0.88183594,0.2734375,0.0625,0.03125,-0.40625,0.0,0.0,0.0
1696291615283,-0.35546875,0.8925781,0.2783203,-0.125,0.28125,0.03125,-34.1875,3.3125,-192.375
1696291615341,-0.3564453,0.8935547,0.2626953,-0.375,-0.21875,0.09375,0.0,0.0,0.0
1696291615369,-0.359375,0.89160156,0.2626953,0.3125,-0.34375,0.09375,0.0,0.0,0.0
1696291615403,-0.34960938,0.8808594,0.24511719,-0.5625,-0.53125,-0.03125,0.0,0.0,0.0
1696291615427,-0.36328125,0.88671875,0.26757812,-0.90625,-0.53125,-0.09375,0.0,0.0,0.0
1696291615490,-0.36914062,0.89941406,0.27148438,-0.375,-0.53125,0.34375,0.0,0.0,0.0
1696291615524,-0.35351562,0.89160156,0.25097656,-0.78125,-0.40625,0.40625,0.0,0.0,0.0
1696291615550,-0.34472656,0.8935547,0.26464844,-1.53125,-0.28125,0.46875,0.0,0.0,0.0
1696291615612,-0.34960938,0.88378906,0.26757812,-0.90625,-0.46875,0.15625,0.0,0.0,0.0
1696291615646,-0.35546875,0.8925781,0.27539062,-0.4375,-0.59375,-0.09375,0.0,0.0,0.0
1696291615671,-0.3564453,0.8828125,0.26171875,-0.625,-0.53125,0.09375,0.0,0.0,0.0
1696291615739,-0.35742188,0.89746094,0.28222656,-0.25,-0.21875,-0.15625,0.0,0.0,0.0
1696291615758,-0.3466797,0.88964844,0.2685547,0.0625,0.09375,-0.09375,-37.0625,0.9375,-191.625
1696291615789,-0.35742188,0.8955078,0.26757812,-0.1875,0.09375,0.15625,0.0,0.0,0.0
1696291615883,-0.35253906,0.8857422,0.2763672,-0.0625,0.03125,0.15625,0.0,0.0,0.0
1696291615913,-0.34765625,0.8808594,0.27246094,-0.375,-0.21875,-0.09375,0.0,0.0,0.0
1696291615915,-0.3515625,0.8876953,0.2783203,-0.375,-0.03125,-0.28125,0.0,0.0,0.0
1696291615968,-0.36035156,0.8886719,0.2763672,-0.125,0.09375,-0.21875,0.0,0.0,0.0
1696291616006,-0.34960938,0.88671875,0.27441406,0.0,-0.09375,0.21875,0.0,0.0,0.0
1696291616029,-0.3486328,0.8847656,0.26367188,-0.0625,-0.09375,0.21875,0.0,0.0,0.0
1696291616092,-0.3701172,0.8847656,0.28125,-0.4375,-0.09375,0.03125,0.0,0.0,0.0
1696291616121,-0.35253906,0.88671875,0.2685547,-0.125,0.03125,-0.03125,0.0,0.0,0.0
1696291616150,-0.35253906,0.890625,0.27734375,-0.0625,-0.03125,0.03125,0.0,0.0,0.0
1696291616209,-0.35839844,0.88378906,0.27148438,0.25,-0.03125,-0.03125,0.0,0.0,0.0
1696291616239,-0.3515625,0.8876953,0.27441406,-0.5,0.03125,0.09375,0.0,0.0,0.0
1696291616269,-0.3486328,0.88671875,0.2763672,-0.3125,-0.15625,0.15625,-37.0625,2.3125,-190.875
1696291616330,-0.36523438,0.88378906,0.26464844,0.0,0.03125,0.03125,0.0,0.0,0.0
1696291616360,-0.35742188,0.8876953,0.2685547,-0.0625,0.09375,-0.09375,0.0,0.0,0.0
1696291616391,-0.3544922,0.88671875,0.2734375,-0.1875,-0.34375,-0.09375,0.0,0.0,0.0
1696291616453,-0.35058594,0.88183594,0.2734375,0.25,0.03125,0.15625,0.0,0.0,0.0
1696291616479,-0.3486328,0.89160156,0.27441406,0.125,0.15625,0.15625,0.0,0.0,0.0
1696291616508,-0.3486328,0.8847656,0.2763672,-0.375,-0.03125,0.03125,0.0,0.0,0.0
1696291616570,-0.35253906,0.8828125,0.26757812,0.0625,-0.03125,-0.09375,0.0,0.0,0.0
1696291616600,-0.3564453,0.8808594,0.29003906,-0.0625,0.15625,-0.09375,0.0,0.0,0.0
1696291616634,-0.35058594,0.89746094,0.28320312,-0.4375,0.03125,0.21875,0.0,0.0,0.0
1696291616691,-0.35253906,0.8857422,0.26660156,0.125,0.09375,0.15625,0.0,0.0,0.0
1696291616721,-0.34960938,0.8847656,0.26464844,0.0625,-0.09375,-0.03125,0.0,0.0,0.0
1696291616750,-0.35351562,0.8935547,0.2578125,0.0,-0.15625,-0.09375,-37.625,0.625,-191.75
1696291616810,-0.35546875,0.8808594,0.27441406,0.0625,0.15625,-0.09375,0.0,0.0,0.0
1696291616840,-0.3515625,0.88183594,0.2685547,-0.125,-0.34375,0.15625,0.0,0.0,0.0
1696291616874,-0.35742188,0.88183594,0.26953125,-0.25,-0.21875,0.03125,0.0,0.0,0.0
1696291616928,-0.35058594,0.8847656,0.27539062,-0.0625,0.15625,0.34375,0.0,0.0,0.0
1696291616958,-0.34960938,0.8808594,0.2548828,-0.1875,-0.03125,0.03125,0.0,0.0,0.0
1696291616988,-0.35839844,0.890625,0.27441406,-0.0625,-0.09375,-0.03125,0.0,0.0,0.0
1696291617051,-0.36035156,0.8847656,0.26757812,0.1875,0.03125,-0.21875,0.0,0.0,0.0
1696291617079,-0.35839844,0.8847656,0.265625,0.1875,0.03125,-0.15625,0.0,0.0,0.0
1696291617109,-0.3515625,0.88671875,0.28222656,0.3125,0.09375,0.03125,0.0,0.0,0.0
1696291617170,-0.35546875,0.8935547,0.2783203,0.4375,0.21875,0.03125,0.0,0.0,0.0
1696291617201,-0.34960938,0.8886719,0.2685547,-0.3125,-0.09375,-0.09375,0.0,0.0,0.0
1696291617230,-0.3623047,0.89160156,0.26660156,-0.3125,-0.21875,-0.21875,0.0,0.0,0.0
1696291617290,-0.36035156,0.8769531,0.26171875,-0.1875,-0.03125,-0.03125,-35.5625,2.3125,-191.625
1696291617318,-0.35351562,0.8964844,0.28515625,-0.0625,0.15625,0.09375,0.0,0.0,0.0
1696291617348,-0.35351562,0.8876953,0.2705078,0.25,-0.03125,0.03125,0.0,0.0,0.0
1696291617408,-0.3544922,0.8847656,0.2783203,0.5,0.15625,-0.21875,0.0,0.0,0.0
1696291617443,-0.3564453,0.8876953,0.28710938,0.1875,0.28125,-0.21875,0.0,0.0,0.0
1696291617467,-0.3486328,0.8925781,0.26367188,0.4375,0.21875,-0.28125,0.0,0.0,0.0
1696291617531,-0.359375,0.89160156,0.2783203,0.71875,0.40625,-0.09375,0.0,0.0,0.0
1696291617567,-0.3515625,0.8886719,0.27441406,0.375,0.34375,-0.09375,0.0,0.0,0.0
1696291617622,-0.35253906,0.87890625,0.26367188,0.0625,0.40625,-0.03125,0.0,0.0,0.0
1696291617679,-0.3564453,0.8876953,0.27246094,0.375,0.40625,-0.09375,0.0,0.0,0.0
1696291617682,-0.36132812,0.8808594,0.25585938,0.4375,0.34375,-0.28125,0.0,0.0,0.0
1696291617710,-0.35546875,0.8798828,0.26464844,0.25,0.15625,-0.21875,0.0,0.0,0.0
1696291617768,-0.35546875,0.8886719,0.2763672,0.3125,0.09375,-0.09375,-37.0625,2.3125,-190.5625
1696291617799,-0.35742188,0.88671875,0.2578125,0.1875,0.34375,-0.09375,0.0,0.0,0.0
1696291617831,-0.35546875,0.8808594,0.2578125,0.0625,0.21875,0.03125,0.0,0.0,0.0
1696291617859,-0.3466797,0.8925781,0.2685547,-0.125,-0.03125,-0.03125,0.0,0.0,0.0
1696291617921,-0.36816406,0.88378906,0.27246094,0.0,-0.09375,-0.09375,0.0,0.0,0.0
1696291617951,-0.3671875,0.875,0.26757812,0.0625,0.28125,-0.09375,0.0,0.0,0.0
1696291617980,-0.34765625,0.89160156,0.26757812,-0.1875,0.21875,0.28125,0.0,0.0,0.0
1696291618038,-0.35253906,0.8935547,0.26660156,0.59375,0.09375,-0.09375,0.0,0.0,0.0
1696291618069,-0.35742188,0.8857422,0.26953125,0.125,0.15625,-0.15625,0.0,0.0,0.0
1696291618100,-0.36035156,0.89160156,0.25390625,0.125,0.15625,-0.15625,0.0,0.0,0.0
1696291618160,-0.35742188,0.88183594,0.2734375,0.375,0.28125,-0.15625,0.0,0.0,0.0
1696291618197,-0.359375,0.890625,0.26367188,0.3125,0.28125,0.15625,0.0,0.0,0.0
1696291618221,-0.3466797,0.8964844,0.265625,-0.0625,0.28125,0.09375,0.0,0.0,0.0
1696291618283,-0.35351562,0.890625,0.27148438,-0.0625,0.21875,0.03125,-37.625,0.3125,-192.5
1696291618309,-0.35742188,0.8886719,0.26757812,0.125,0.03125,-0.09375,0.0,0.0,0.0
1696291618340,-0.36523438,0.8769531,0.26660156,0.0625,-0.03125,-0.21875,0.0,0.0,0.0
1696291618402,-0.3623047,0.875,0.27441406,0.1875,0.21875,-0.21875,0.0,0.0,0.0
1696291618428,-0.35742188,0.8925781,0.2734375,0.25,0.21875,0.03125,0.0,0.0,0.0
1696291618463,-0.35351562,0.8876953,0.2578125,0.1875,0.34375,0.09375,0.0,0.0,0.0
1696291618522,-0.35253906,0.8808594,0.27246094,0.0,0.09375,0.09375,0.0,0.0,0.0
1696291618548,-0.3564453,0.88671875,0.26367188,0.0,0.03125,-0.03125,0.0,0.0,0.0
1696291618579,-0.36035156,0.8798828,0.26757812,0.0,0.03125,-0.15625,0.0,0.0,0.0
1696291618637,-0.34960938,0.88964844,0.27148438,-0.3125,0.25,0.21875,0.0,0.0,0.0
1696291618669,-0.359375,0.8857422,0.2705078,0.0625,-0.0625,0.21875,0.0,0.0,0.0
1696291618699,-0.35742188,0.88378906,0.2607422,-0.0625,-0.25,-0.03125,0.0,0.0,0.0
1696291618762,-0.359375,0.88671875,0.25976562,-0.375,-0.25,0.03125,-35.875,2.125,-191.75
1696291618790,-0.35839844,0.8935547,0.26757812,-0.25,-0.3125,-0.15625,0.0,0.0,0.0
1696291618819,-0.36523438,0.8808594,0.2685547,-0.0625,-0.3125,0.09375,0.0,0.0,0.0
1696291618878,-0.35253906,0.88964844,0.26660156,-0.625,-0.3125,0.03125,0.0,0.0,0.0
1696291618909,-0.35742188,0.88964844,0.265625,-0.8125,-0.25,0.28125,0.0,0.0,0.0
1696291618938,-0.35742188,0.89746094,0.26757812,-0.625,-0.8125,0.21875,0.0,0.0,0.0
1696291619001,-0.3486328,0.88183594,0.2783203,-0.625,-0.6875,0.03125,0.0,0.0,0.0
1696291619027,-0.3623047,0.875,0.2626953,-0.625,-0.75,-0.03125,0.0,0.0,0.0
1696291619059,-0.35546875,0.87597656,0.2685547,-0.5625,-0.5,0.09375,0.0,0.0,0.0
1696291619121,-0.3564453,0.8984375,0.26464844,-0.625,-0.375,0.28125,0.0,0.0,0.0
1696291619150,-0.34179688,0.88378906,0.25878906,-0.75,-0.4375,0.15625,0.0,0.0,0.0
1696291619180,-0.35253906,0.89160156,0.26757812,-0.875,-0.84375,0.21875,0.0,0.0,0.0
1696291619241,-0.35351562,0.87597656,0.28515625,-0.25,-0.75,-0.09375,0.0,0.0,0.0
1696291619273,-0.3466797,0.88671875,0.27441406,-0.4375,-0.1875,-0.15625,-36.3125,3.3125,-192.375
1696291619301,-0.34277344,0.89453125,0.28027344,-1.15625,-0.4375,0.21875,0.0,0.0,0.0
1696291619362,-0.3544922,0.88964844,0.27441406,-0.0625,-0.5,0.28125,0.0,0.0,0.0
1696291619389,-0.3515625,0.87890625,0.27539062,-0.1875,-0.4375,0.21875,0.0,0.0,0.0
1696291619419,-0.3515625,0.87890625,0.26171875,-0.625,-0.375,-0.03125,0.0,0.0,0.0
1696291619486,-0.3486328,0.88964844,0.26953125,-0.25,-0.375,-0.03125,0.0,0.0,0.0
1696291619509,-0.3515625,0.8808594,0.27929688,-0.0625,-0.125,0.21875,0.0,0.0,0.0
1696291619539,-0.3564453,0.8847656,0.29589844,-0.0625,0.0,0.15625,0.0,0.0,0.0
1696291619604,-0.3466797,0.8857422,0.2685547,-0.5625,-0.1875,0.15625,0.0,0.0,0.0
1696291619629,-0.35546875,0.8798828,0.27441406,0.0,-0.1875,-0.03125,0.0,0.0,0.0
1696291619660,-0.35742188,0.8847656,0.28125,0.0625,-0.3125,-0.03125,0.0,0.0,0.0
1696291619722,-0.35253906,0.8964844,0.27539062,-0.25,-0.25,-0.15625,0.0,0.0,0.0
1696291619755,-0.359375,0.8886719,0.2685547,-0.125,-0.125,0.09375,-35.5625,1.25,-190.875
1696291619778,-0.34179688,0.87597656,0.2763672,-0.375,-0.0625,0.21875,0.0,0.0,0.0
1696291619843,-0.34765625,0.8876953,0.265625,-0.25,-0.125,0.09375,0.0,0.0,0.0
1696291619902,-0.35839844,0.8779297,0.27441406,-0.0625,-0.25,-0.09375,0.0,0.0,0.0
1696291619905,-0.3544922,0.89453125,0.2783203,-0.1875,-0.125,-0.15625,0.0,0.0,0.0
1696291619961,-0.35351562,0.8876953,0.2861328,-0.25,-0.125,0.03125,0.0,0.0,0.0
1696291619989,-0.3515625,0.88183594,0.2763672,-0.25,-0.1875,0.15625,0.0,0.0,0.0
1696291620026,-0.35351562,0.89941406,0.28320312,0.125,-0.1875,0.09375,0.0,0.0,0.0
1696291620083,-0.35546875,0.875,0.2783203,-0.25,-0.3125,-0.15625,0.0,0.0,0.0
1696291620111,-0.35351562,0.8886719,0.27148438,0.0,-0.0625,-0.15625,0.0,0.0,0.0
1696291620139,-0.3515625,0.88671875,0.2734375,0.0,-0.125,-0.09375,0.0,0.0,0.0
1696291620201,-0.3642578,0.88183594,0.2685547,0.0625,0.0625,-0.03125,0.0,0.0,0.0
1696291620229,-0.35351562,0.89160156,0.2734375,-0.1875,-0.125,0.03125,0.0,0.0,0.0
1696291620259,-0.35351562,0.88671875,0.2705078,-0.1875,-0.1875,-0.09375,-36.75,0.9375,-192.375
1696291620320,-0.34765625,0.8886719,0.28027344,0.125,0.0,-0.03125,0.0,0.0,0.0
1696291620351,-0.34960938,0.88183594,0.2734375,0.0625,0.0625,-0.09375,0.0,0.0,0.0
1696291620379,-0.35742188,0.87890625,0.2734375,0.1875,-0.1875,-0.15625,0.0,0.0,0.0
1696291620442,-0.35546875,0.8876953,0.27734375,0.34375,0.3125,-0.03125,0.0,0.0,0.0
1696291620468,-0.35546875,0.8857422,0.27148438,0.53125,0.375,-0.03125,0.0,0.0,0.0
1696291620498,-0.36132812,0.8955078,0.26464844,0.1875,0.25,-0.09375,0.0,0.0,0.0
1696291620560,-0.3515625,0.89160156,0.2685547,0.0625,0.0,-0.15625,0.0,0.0,0.0
1696291620591,-0.3623047,0.8828125,0.2626953,0.46875,0.375,-0.28125,0.0,0.0,0.0
1696291620619,-0.3515625,0.8886719,0.28222656,0.59375,0.65625,-0.15625,0.0,0.0,0.0
1696291620681,-0.36523438,0.8964844,0.2734375,0.34375,0.375,-0.21875,0.0,0.0,0.0
1696291620710,-0.359375,0.875,0.26464844,1.09375,-0.125,-0.28125,0.0,0.0,0.0
1696291620743,-0.359375,0.8955078,0.27734375,0.40625,0.125,-0.28125,0.0,0.0,0.0
1696291620803,-0.36035156,0.8857422,0.27246094,0.1875,0.3125,-0.15625,-37.0625,1.25,-191.3125
1696291620829,-0.3642578,0.8779297,0.2734375,0.59375,0.0,-0.09375,0.0,0.0,0.0
1696291620859,-0.36914062,0.88183594,0.27539062,-0.25,-0.1875,0.09375,0.0,0.0,0.0
1696291620922,-0.359375,0.87890625,0.2783203,-0.3125,0.0625,0.21875,0.0,0.0,0.0
1696291620958,-0.34765625,0.8847656,0.2685547,0.0625,-0.0625,0.09375,0.0,0.0,0.0
1696291621010,-0.35351562,0.8876953,0.26757812,-0.3125,-0.375,-0.09375,0.0,0.0,0.0
1696291621039,-0.3564453,0.8828125,0.25976562,0.125,-0.0625,-0.21875,0.0,0.0,0.0
1696291621071,-0.35546875,0.89160156,0.26660156,0.125,0.0625,-0.15625,0.0,0.0,0.0
1696291621100,-0.35742188,0.8857422,0.28222656,0.0,0.1875,-0.09375,0.0,0.0,0.0
1696291621161,-0.36035156,0.89160156,0.26367188,0.1875,0.25,0.15625,0.0,0.0,0.0
1696291621189,-0.35546875,0.8955078,0.26367188,0.0,0.0625,-0.03125,0.0,0.0,0.0
1696291621219,-0.3564453,0.8857422,0.27441406,-0.1875,-0.375,-0.21875,0.0,0.0,0.0
1696291621279,-0.35253906,0.89160156,0.27441406,0.40625,0.3125,-0.28125,-37.625,1.375,-191.75
1696291621309,-0.34765625,0.8925781,0.26660156,-0.125,0.375,0.15625,0.0,0.0,0.0
1696291621341,-0.35546875,0.8857422,0.2685547,0.34375,-0.0625,0.03125,0.0,0.0,0.0
1696291621401,-0.359375,0.89453125,0.26171875,0.28125,0.0,-0.09375,0.0,0.0,0.0
1696291621428,-0.35546875,0.88671875,0.2705078,0.125,0.1875,-0.28125,0.0,0.0,0.0
1696291621458,-0.35742188,0.89746094,0.26660156,0.0,0.125,-0.09375,0.0,0.0,0.0
1696291621522,-0.35546875,0.8857422,0.26367188,0.40625,0.1875,0.15625,0.0,0.0,0.0
1696291621552,-0.3564453,0.88964844,0.265625,-0.0625,0.0625,0.03125,0.0,0.0,0.0
1696291621581,-0.359375,0.89160156,0.27148438,-0.5,-0.0625,0.15625,0.0,0.0,0.0
1696291621641,-0.34765625,0.89160156,0.2578125,0.28125,-0.0625,0.09375,0.0,0.0,0.0
1696291621675,-0.35058594,0.8847656,0.2685547,0.1875,0.0,-0.09375,0.0,0.0,0.0
1696291621698,-0.36328125,0.8828125,0.27929688,-0.1875,-0.1875,-0.21875,0.0,0.0,0.0
1696291621758,-0.36132812,0.8955078,0.27246094,0.28125,0.0625,-0.15625,0.0,0.0,0.0
1696291621791,-0.35839844,0.8876953,0.2763672,0.0,-0.25,0.09375,-36.0,0.1875,-191.875
1696291621817,-0.359375,0.890625,0.26660156,-0.375,-0.3125,0.09375,0.0,0.0,0.0
1696291621888,-0.34765625,0.8925781,0.26660156,-0.4375,-0.4375,-0.09375,0.0,0.0,0.0
1696291621910,-0.36132812,0.8876953,0.27246094,-0.8125,-0.8125,-0.28125,0.0,0.0,0.0
1696291621939,-0.3486328,0.8857422,0.27441406,-0.8125,-0.375,0.09375,0.0,0.0,0.0
1696291622000,-0.3623047,0.8857422,0.26367188,-0.6875,-0.5625,0.28125,0.0,0.0,0.0
1696291622028,-0.35351562,0.87890625,0.26757812,-0.4375,-0.5625,0.15625,0.0,0.0,0.0
1696291622059,-0.3544922,0.88964844,0.26953125,-0.875,-0.625,-0.03125,0.0,0.0,0.0
1696291622123,-0.36328125,0.8876953,0.27148438,-0.9375,-0.8125,-0.15625,0.0,0.0,0.0
1696291622179,-0.35351562,0.8857422,0.28027344,-0.1875,-0.5,0.03125,0.0,0.0,0.0
1696291622181,-0.3515625,0.8798828,0.2548828,-0.25,-0.4375,0.03125,0.0,0.0,0.0
1696291622239,-0.35351562,0.88671875,0.26757812,-0.5625,-0.3125,0.15625,0.0,0.0,0.0
1696291622269,-0.35546875,0.890625,0.2626953,-0.5625,-0.1875,0.09375,-36.875,2.4375,-192.1875
1696291622298,-0.3564453,0.88671875,0.2783203,-0.1875,-0.4375,-0.03125,0.0,0.0,0.0
1696291622358,-0.35742188,0.88378906,0.2578125,-0.25,-0.25,-0.15625,0.0,0.0,0.0
1696291622390,-0.35351562,0.8857422,0.26953125,-0.3125,-0.375,-0.03125,0.0,0.0,0.0
1696291622420,-0.3515625,0.8857422,0.26757812,0.0625,-0.0625,0.03125,0.0,0.0,0.0
1696291622480,-0.3564453,0.8886719,0.2685547,0.0,-0.0625,0.15625,0.0,0.0,0.0
1696291622509,-0.35351562,0.8847656,0.26953125,-0.4375,-0.0625,0.09375,0.0,0.0,0.0
1696291622539,-0.35839844,0.8876953,0.2685547,0.125,-0.25,-0.09375,0.0,0.0,0.0
1696291622598,-0.3564453,0.8955078,0.28222656,-0.125,-0.25,-0.21875,0.0,0.0,0.0
1696291622628,-0.3544922,0.8886719,0.26757812,-0.375,-0.0625,-0.09375,0.0,0.0,0.0
1696291622659,-0.3544922,0.88671875,0.2841797,-0.3125,-0.125,0.21875,0.0,0.0,0.0
1696291622718,-0.35546875,0.8847656,0.26757812,0.0625,-0.125,0.15625,0.0,0.0,0.0
1696291622748,-0.35058594,0.8876953,0.2841797,-0.5625,-0.375,0.09375,0.0,0.0,0.0
1696291622779,-0.359375,0.8808594,0.27441406,-0.1875,-0.3125,-0.09375,-36.75,3.3125,-190.25
1696291622839,-0.35351562,0.88671875,0.28125,0.0625,0.0,-0.03125,0.0,0.0,0.0
1696291622868,-0.3544922,0.8886719,0.28808594,-0.25,-0.1875,0.15625,0.0,0.0,0.0
1696291622898,-0.35253906,0.8847656,0.2734375,-0.3125,-0.1875,0.15625,0.0,0.0,0.0
1696291622960,-0.35253906,0.8857422,0.28808594,-0.3125,-0.1875,0.15625,0.0,0.0,0.0
1696291622989,-0.359375,0.8847656,0.26660156,-0.1875,-0.1875,-0.09375,0.0,0.0,0.0
1696291623018,-0.35839844,0.8876953,0.265625,0.0625,-0.125,-0.03125,0.0,0.0,0.0
1696291623079,-0.359375,0.8847656,0.28320312,-0.375,-0.4375,0.03125,0.0,0.0,0.0
1696291623109,-0.3544922,0.8935547,0.27734375,-0.5,-0.3125,0.03125,0.0,0.0,0.0
1696291623142,-0.3544922,0.8828125,0.26464844,-0.3125,-0.1875,0.21875,0.0,0.0,0.0
1696291623199,-0.3544922,0.89160156,0.27148438,0.0,-0.0625,0.09375,0.0,0.0,0.0
1696291623227,-0.36328125,0.88964844,0.28125,-0.5625,-0.25,-0.09375,0.0,0.0,0.0
1696291623258,-0.359375,0.87597656,0.27441406,0.0625,-0.125,-0.15625,-35.5625,2.0,-191.625
1696291623329,-0.35253906,0.8808594,0.27246094,0.28125,0.1875,0.03125,0.0,0.0,0.0
1696291623348,-0.3466797,0.8886719,0.28027344,-0.25,-0.0625,0.21875,0.0,0.0,0.0
1696291623382,-0.36523438,0.88671875,0.27246094,0.40625,-0.25,-0.15625,0.0,0.0,0.0
1696291623442,-0.35058594,0.8828125,0.28222656,0.1875,-0.25,-0.15625,0.0,0.0,0.0
1696291623467,-0.3642578,0.88964844,0.2705078,-0.125,-0.0625,-0.15625,0.0,0.0,0.0
1696291623500,-0.34765625,0.88671875,0.2734375,0.125,-0.0625,-0.15625,0.0,0.0,0.0
1696291623559,-0.34960938,0.8886719,0.26367188,-0.3125,-0.1875,0.09375,0.0,0.0,0.0
1696291623596,-0.36132812,0.87890625,0.27734375,-0.3125,-0.125,0.21875,0.0,0.0,0.0
1696291623619,-0.3486328,0.87597656,0.2734375,-0.125,0.0,-0.09375,0.0,0.0,0.0
1696291623680,-0.36816406,0.8847656,0.27441406,0.34375,-0.1875,-0.09375,0.0,0.0,0.0
1696291623710,-0.35351562,0.8886719,0.28710938,0.125,0.125,-0.21875,0.0,0.0,0.0
1696291623741,-0.3515625,0.8828125,0.27441406,-0.125,-0.1875,-0.09375,0.0,0.0,0.0
1696291623799,-0.3671875,0.8779297,0.2705078,0.40625,0.0625,0.09375,-35.25,2.0,-190.5625
1696291623828,-0.34960938,0.88183594,0.27929688,0.3125,0.3125,-0.03125,0.0,0.0,0.0
1696291623859,-0.35351562,0.87597656,0.27148438,0.25,0.375,-0.09375,0.0,0.0,0.0
1696291623920,-0.3544922,0.89453125,0.26660156,0.4375,0.0,-0.34375,0.0,0.0,0.0
1696291623948,-0.35253906,0.8828125,0.29003906,0.5,0.0625,-0.34375,0.0,0.0,0.0
1696291623981,-0.36132812,0.88964844,0.25976562,0.09375,0.46875,0.0625,0.0,0.0,0.0
1696291624038,-0.3642578,0.8955078,0.27929688,0.1875,0.3125,0.0,0.0,0.0,0.0
1696291624070,-0.35546875,0.890625,0.26660156,0.375,-0.0625,-0.21875,0.0,0.0,0.0
1696291624099,-0.36621094,0.87890625,0.26660156,-0.09375,-0.0625,-0.15625,0.0,0.0,0.0
1696291624159,-0.34765625,0.88378906,0.27441406,0.03125,0.125,-0.09375,0.0,0.0,0.0
1696291624192,-0.3515625,0.88378906,0.27246094,0.09375,0.0,0.0,0.0,0.0,0.0
1696291624222,-0.3515625,0.8847656,0.26464844,-0.03125,0.0625,0.125,0.0,0.0,0.0
1696291624280,-0.35546875,0.88183594,0.26367188,-0.03125,0.25,0.3125,-37.0625,1.5625,-191.3125
1696291624308,-0.35742188,0.8847656,0.2705078,0.03125,0.0625,0.0625,0.0,0.0,0.0
1696291624338,-0.3564453,0.88378906,0.26953125,0.1875,0.0625,-0.09375,0.0,0.0,0.0
1696291624400,-0.3486328,0.8847656,0.25585938,0.3125,0.0625,-0.21875,0.0,0.0,0.0
1696291624462,-0.35058594,0.87890625,0.2734375,0.25,0.0,-0.21875,0.0,0.0,0.0
1696291624464,-0.35058594,0.8847656,0.27539062,0.1875,0.375,-0.15625,0.0,0.0,0.0
1696291624518,-0.34960938,0.8925781,0.26367188,0.15625,0.1875,0.0,0.0,0.0,0.0
1696291624548,-0.36035156,0.8935547,0.26660156,0.03125,0.0,-0.09375,0.0,0.0,0.0
1696291624583,-0.36035156,0.8886719,0.26171875,-0.28125,-0.375,-0.03125,0.0,0.0,0.0
1696291624672,-0.36132812,0.8808594,0.2763672,-0.09375,0.0625,-0.03125,0.0,0.0,0.0
1696291624675,-0.35742188,0.8886719,0.2763672,-0.34375,0.25,0.25,0.0,0.0,0.0
1696291624702,-0.3515625,0.8955078,0.27929688,-0.15625,-0.4375,0.0625,0.0,0.0,0.0
1696291624760,-0.36328125,0.88671875,0.27246094,-0.09375,-0.375,0.0625,0.0,0.0,0.0
1696291624790,-0.3515625,0.8798828,0.26660156,-0.34375,-0.1875,0.0,-36.4375,0.625,-191.75
1696291624818,-0.3515625,0.88671875,0.27734375,-0.21875,-0.1875,-0.09375,0.0,0.0,0.0
1696291624916,-0.36328125,0.88964844,0.2607422,0.3125,-0.125,0.0625,0.0,0.0,0.0
1696291624918,-0.3515625,0.89453125,0.27246094,-0.15625,-0.0625,0.0625,0.0,0.0,0.0
1696291624940,-0.3515625,0.88183594,0.2734375,-0.46875,0.125,0.125,0.0,0.0,0.0
1696291625003,-0.34765625,0.88671875,0.27734375,0.25,0.0,0.0,0.0,0.0,0.0
1696291625032,-0.35351562,0.8876953,0.2607422,0.03125,-0.0625,-0.15625,0.0,0.0,0.0
1696291625060,-0.36132812,0.88183594,0.27441406,-0.34375,-0.1875,-0.09375,0.0,0.0,0.0
1696291625120,-0.36132812,0.8828125,0.26660156,0.09375,-0.0625,-0.03125,0.0,0.0,0.0
1696291625149,-0.35839844,0.88378906,0.27441406,-0.15625,0.0625,0.1875,0.0,0.0,0.0
1696291625178,-0.35742188,0.88671875,0.2705078,-0.34375,-0.125,0.125,0.0,0.0,0.0
1696291625246,-0.35253906,0.8876953,0.25976562,-0.34375,-0.4375,0.0,0.0,0.0,0.0
1696291625268,-0.35058594,0.8857422,0.2890625,-0.21875,-0.25,-0.15625,-37.0625,2.0,-191.875
1696291625298,-0.34765625,0.8798828,0.29785156,-0.34375,-0.125,-0.09375,0.0,0.0,0.0
1696291625359,-0.36035156,0.88183594,0.2783203,-0.53125,-0.0625,0.1875,0.0,0.0,0.0
1696291625391,-0.3408203,0.88378906,0.27148438,0.25,-0.1875,0.125,0.0,0.0,0.0
1696291625419,-0.35742188,0.8847656,0.2841797,-0.15625,0.0,0.0,0.0,0.0,0.0
1696291625479,-0.36035156,0.88183594,0.27246094,-0.15625,-0.1875,-0.15625,0.0,0.0,0.0
1696291625508,-0.35351562,0.88183594,0.27246094,-0.03125,-0.0625,-0.03125,0.0,0.0,0.0
1696291625541,-0.36328125,0.8857422,0.26660156,-0.15625,-0.1875,0.0625,0.0,0.0,0.0
1696291625600,-0.3515625,0.88378906,0.27148438,-0.21875,-0.1875,0.1875,0.0,0.0,0.0
1696291625634,-0.3515625,0.88964844,0.2685547,-0.28125,-0.0625,0.0625,0.0,0.0,0.0
1696291625663,-0.3486328,0.8925781,0.27539062,0.09375,0.0625,-0.03125,0.0,0.0,0.0
1696291625720,-0.34277344,0.88671875,0.26953125,-0.21875,-0.125,-0.03125,0.0,0.0,0.0
1696291625748,-0.36035156,0.8847656,0.2734375,-0.09375,-0.1875,0.0,0.0,0.0,0.0
1696291625783,-0.359375,0.8847656,0.27246094,0.03125,0.0625,-0.03125,-35.375,3.1875,-191.75
1696291625839,-0.35546875,0.8857422,0.2578125,0.09375,0.125,0.125,0.0,0.0,0.0
1696291625869,-0.35742188,0.8798828,0.2861328,0.15625,0.0625,-0.03125,0.0,0.0,0.0
1696291625903,-0.35742188,0.8779297,0.26171875,0.09375,0.0,-0.15625,0.0,0.0,0.0
1696291625957,-0.35058594,0.8886719,0.28222656,0.15625,0.125,0.0625,0.0,0.0,0.0
1696291625989,-0.3544922,0.8935547,0.28710938,-0.03125,0.0,0.0,0.0,0.0,0.0
1696291626021,-0.3486328,0.87890625,0.28027344,-0.21875,-0.125,0.0625,0.0,0.0,0.0
1696291626079,-0.35742188,0.8798828,0.27539062,0.5,-0.125,-0.15625,0.0,0.0,0.0
1696291626110,-0.35351562,0.8808594,0.27734375,0.09375,0.125,-0.21875,0.0,0.0,0.0
1696291626141,-0.36328125,0.8886719,0.27148438,-0.03125,-0.0625,-0.15625,0.0,0.0,0.0
1696291626201,-0.35742188,0.88671875,0.27441406,0.625,0.0625,-0.09375,0.0,0.0,0.0
1696291626235,-0.35351562,0.89453125,0.26660156,0.15625,0.125,-0.03125,0.0,0.0,0.0
1696291626259,-0.3515625,0.8876953,0.2734375,0.15625,0.3125,-0.03125,-36.875,0.3125,-190.6875
1696291626318,-0.35546875,0.8779297,0.25585938,0.6875,0.46875,-0.21875,0.0,0.0,0.0
1696291626357,-0.3515625,0.8847656,0.28125,0.75,0.375,-0.21875,0.0,0.0,0.0
1696291626379,-0.3564453,0.88183594,0.2626953,0.5,0.375,-0.34375,0.0,0.0,0.0
1696291626443,-0.35546875,0.8876953,0.2734375,0.625,0.1875,-0.34375,0.0,0.0,0.0
1696291626468,-0.3623047,0.8847656,0.2705078,0.4375,0.125,-0.09375,0.0,0.0,0.0
1696291626500,-0.3564453,0.88378906,0.26953125,0.3125,0.3125,-0.15625,0.0,0.0,0.0
1696291626561,-0.3515625,0.8798828,0.26757812,0.3125,0.0625,-0.03125,0.0,0.0,0.0
1696291626596,-0.35351562,0.8925781,0.26953125,-0.09375,-0.125,-0.15625,0.0,0.0,0.0
1696291626624,-0.359375,0.88964844,0.26953125,0.03125,0.25,-0.15625,0.0,0.0,0.0
1696291626647,-0.3515625,0.8828125,0.26757812,0.03125,0.1875,0.0,0.0,0.0,0.0
1696291626739,-0.3515625,0.8886719,0.27148438,0.1875,0.25,0.0,0.0,0.0,0.0
1696291626743,-0.34960938,0.8876953,0.2685547,0.5625,0.125,-0.21875,0.0,0.0,0.0
1696291626798,-0.35742188,0.88378906,0.27246094,0.3125,0.1875,-0.34375,-36.0,2.0,-191.625
1696291626830,-0.3564453,0.88183594,0.2685547,0.75,0.375,-0.21875,0.0,0.0,0.0
1696291626859,-0.35546875,0.8857422,0.25683594,0.625,0.375,0.0625,0.0,0.0,0.0
1696291626891,-0.35742188,0.8886719,0.26953125,0.25,0.25,-0.09375,0.0,0.0,0.0
1696291626957,-0.34277344,0.8847656,0.27148438,0.25,0.53125,0.0625,0.0,0.0,0.0
1696291626982,-0.36035156,0.8925781,0.2626953,0.15625,0.125,0.125,0.0,0.0,0.0
1696291627011,-0.34960938,0.8798828,0.26367188,0.3125,0.25,-0.09375,0.0,0.0,0.0
1696291627067,-0.35351562,0.88671875,0.2607422,0.75,0.1875,-0.09375,0.0,0.0,0.0
1696291627100,-0.3486328,0.8876953,0.2626953,0.25,0.25,-0.09375,0.0,0.0,0.0
1696291627130,-0.3544922,0.8935547,0.25585938,0.1875,0.25,-0.03125,0.0,0.0,0.0
1696291627187,-0.36132812,0.8935547,0.265625,0.5,0.125,0.125,0.0,0.0,0.0
1696291627219,-0.35742188,0.89453125,0.25,-0.03125,0.125,-0.03125,0.0,0.0,0.0
1696291627278,-0.36035156,0.8925781,0.27929688,-0.46875,-0.375,-0.28125,-35.25,1.25,-191.625
1696291627308,-0.3623047,0.8828125,0.2607422,-0.03125,0.25,0.0,0.0,0.0,0.0
1696291627340,-0.35351562,0.89746094,0.25878906,-0.65625,-0.0625,0.5,0.0,0.0,0.0
1696291627370,-0.35058594,0.8935547,0.26660156,-0.09375,-0.25,0.0,0.0,0.0,0.0
1696291627433,-0.3564453,0.8925781,0.26171875,0.15625,0.0,0.0,0.0,0.0,0.0
1696291627460,-0.35253906,0.88183594,0.26953125,-0.09375,-0.3125,-0.21875,0.0,0.0,0.0
1696291627488,-0.3642578,0.8857422,0.25878906,-0.09375,-0.0625,0.0,0.0,0.0,0.0
1696291627553,-0.35839844,0.8876953,0.26660156,0.375,0.0625,0.0,0.0,0.0,0.0
1696291627582,-0.35742188,0.8984375,0.26367188,-0.34375,0.0,-0.03125,0.0,0.0,0.0
1696291627611,-0.36132812,0.89160156,0.25976562,-0.59375,-0.25,0.125,0.0,0.0,0.0
1696291627669,-0.36035156,0.8828125,0.25,-0.03125,-0.25,0.0625,0.0,0.0,0.0
1696291627701,-0.35253906,0.9003906,0.2607422,-0.53125,-0.5,-0.03125,0.0,0.0,0.0
1696291627728,-0.35546875,0.88378906,0.25878906,-0.9375,-0.5625,-0.125,0.0,0.0,0.0
1696291627789,-0.36328125,0.88378906,0.26953125,-0.75,-0.8125,0.03125,-37.0625,0.9375,-193.375
1696291627826,-0.36621094,0.8886719,0.26660156,-1.21875,-0.8125,0.28125,0.0,0.0,0.0
1696291627849,-0.36132812,0.8857422,0.25683594,-1.28125,-0.8125,0.34375,0.0,0.0,0.0
1696291627911,-0.3515625,0.8857422,0.26757812,-1.0,-0.6875,0.09375,0.0,0.0,0.0
1696291627940,-0.359375,0.88964844,0.265625,-1.28125,-0.75,0.21875,0.0,0.0,0.0
1696291627971,-0.3642578,0.8798828,0.28710938,-1.34375,-0.5625,0.15625,0.0,0.0,0.0
1696291628032,-0.359375,0.8847656,0.2763672,-0.6875,-0.625,0.28125,0.0,0.0,0.0
1696291628062,-0.35058594,0.8808594,0.28808594,-0.3125,-0.5,0.09375,0.0,0.0,0.0
1696291628091,-0.3564453,0.8828125,0.2607422,-0.4375,-0.3125,-0.09375,0.0,0.0,0.0
1696291628151,-0.3515625,0.8779297,0.2734375,-0.3125,-0.3125,0.03125,0.0,0.0,0.0
1696291628191,-0.35742188,0.8847656,0.2685547,-0.25,-0.375,0.09375,0.0,0.0,0.0
1696291628209,-0.34960938,0.87890625,0.27734375,-0.4375,-0.25,0.09375,0.0,0.0,0.0
1696291628270,-0.3623047,0.8847656,0.28125,-0.75,-0.1875,0.21875,-35.875,3.1875,-191.75
1696291628305,-0.3486328,0.88378906,0.27246094,-0.4375,-0.4375,0.09375,0.0,0.0,0.0
1696291628328,-0.35058594,0.89746094,0.28320312,-0.3125,-0.3125,0.15625,0.0,0.0,0.0
1696291628390,-0.3515625,0.88378906,0.26757812,-0.5625,-0.3125,0.21875,0.0,0.0,0.0
1696291628420,-0.34765625,0.8808594,0.27441406,-0.25,-0.375,-0.03125,0.0,0.0,0.0
1696291628452,-0.35839844,0.88378906,0.2763672,-0.375,-0.3125,0.15625,0.0,0.0,0.0
1696291628507,-0.3564453,0.8798828,0.27539062,-0.5625,-0.3125,0.15625,0.0,0.0,0.0
