# Sensor type: Thingy
# Activity type: Lying down back
# Activity subtype: Normal
# Subject id: s2094833
# Notes: 
timestamp,accel_x,accel_y,accel_z,gyro_x,gyro_y,gyro_z,mag_x,mag_y,mag_z
1696292005788,-0.015625,0.07421875,0.9404297,0.125,0.03125,-0.03125,0.0,0.0,0.0
1696292005847,-0.01171875,0.07421875,0.93066406,0.125,-0.09375,-0.15625,0.0,0.0,0.0
1696292005879,-0.021484375,0.07910156,0.9316406,-0.21875,-0.28125,0.03125,0.0,0.0,0.0
1696292005907,-0.0146484375,0.08691406,0.9355469,-0.46875,-0.5625,-0.09375,0.0,0.0,0.0
1696292005968,-0.013671875,0.0703125,0.94628906,0.0625,-0.40625,0.09375,0.0,0.0,0.0
1696292005999,-0.0078125,0.08496094,0.9355469,0.1875,-0.03125,-0.09375,0.0,0.0,0.0
1696292006030,-0.0126953125,0.08691406,0.9394531,-0.15625,-0.34375,-0.09375,0.0,0.0,0.0
1696292006087,-0.013671875,0.080078125,0.921875,-0.21875,-0.28125,-0.15625,0.0,0.0,0.0
1696292006120,-0.0146484375,0.08105469,0.95996094,-0.03125,-0.03125,0.09375,0.0,0.0,0.0
1696292006147,-0.0126953125,0.08691406,0.93359375,0.03125,-0.09375,-0.03125,0.0,0.0,0.0
1696292006208,-0.017578125,0.08984375,0.94140625,-0.15625,-0.4375,-0.03125,0.0,0.0,0.0
1696292006238,-0.01953125,0.07910156,0.9433594,-0.15625,-0.09375,-0.09375,0.0,0.0,0.0
1696292006268,-0.013671875,0.08984375,0.9394531,0.125,-0.03125,-0.28125,-21.3125,-35.5,-169.875
1696292006328,-0.013671875,0.080078125,0.93652344,-0.53125,-0.40625,-0.03125,0.0,0.0,0.0
1696292006358,-0.0126953125,0.076171875,0.9375,-0.21875,-0.5625,0.15625,0.0,0.0,0.0
1696292006389,-0.020507812,0.083984375,0.93652344,0.0625,0.15625,0.03125,0.0,0.0,0.0
1696292006450,-0.022460938,0.08203125,0.94140625,-0.21875,-0.28125,-0.03125,0.0,0.0,0.0
1696292006479,-0.021484375,0.08496094,0.94628906,0.25,-0.34375,-0.09375,0.0,0.0,0.0
1696292006508,-0.0146484375,0.09277344,0.94140625,-0.21875,-0.28125,-0.03125,0.0,0.0,0.0
1696292006570,-0.015625,0.09082031,0.9433594,0.03125,-0.15625,-0.09375,0.0,0.0,0.0
1696292006599,-0.018554688,0.08886719,0.9482422,-0.28125,-0.40625,-0.09375,0.0,0.0,0.0
1696292006629,-0.015625,0.08984375,0.9423828,-0.09375,-0.75,0.03125,0.0,0.0,0.0
1696292006690,-0.024414062,0.087890625,0.9267578,0.1875,-0.21875,0.03125,0.0,0.0,0.0
1696292006719,-0.018554688,0.08496094,0.93847656,-0.40625,-0.15625,-0.09375,0.0,0.0,0.0
1696292006749,-0.017578125,0.083984375,0.9375,-0.15625,-0.4375,-0.15625,-22.1875,-36.4375,-168.625
1696292006807,-0.016601562,0.095703125,0.93359375,-0.03125,-0.34375,-0.09375,0.0,0.0,0.0
1696292006842,-0.020507812,0.08203125,0.9433594,0.25,-0.21875,0.03125,0.0,0.0,0.0
1696292006868,-0.009765625,0.08105469,0.953125,0.03125,-0.09375,-0.03125,0.0,0.0,0.0
1696292006929,-0.01953125,0.08300781,0.93847656,-0.40625,-0.4375,-0.03125,0.0,0.0,0.0
1696292006959,-0.0087890625,0.080078125,0.94433594,0.0625,-0.03125,-0.03125,0.0,0.0,0.0
1696292006989,-0.0078125,0.078125,0.94628906,0.25,0.03125,-0.03125,0.0,0.0,0.0
1696292007051,-0.017578125,0.08886719,0.93066406,-0.59375,-0.15625,0.03125,0.0,0.0,0.0
1696292007079,-0.01953125,0.08886719,0.94628906,-0.21875,-0.5,-0.03125,0.0,0.0,0.0
1696292007111,-0.018554688,0.076171875,0.9453125,-0.03125,-0.09375,0.03125,0.0,0.0,0.0
1696292007172,-0.026367188,0.08691406,0.9433594,-0.09375,-0.15625,-0.09375,0.0,0.0,0.0
1696292007202,-0.016601562,0.087890625,0.94140625,0.0625,-0.34375,-0.03125,0.0,0.0,0.0
1696292007238,-0.0126953125,0.08691406,0.91796875,-0.28125,-0.21875,-0.15625,0.0,0.0,0.0
1696292007289,-0.0126953125,0.080078125,0.9355469,0.125,0.09375,0.03125,-20.875,-34.75,-169.5625
1696292007324,-0.015625,0.08105469,0.9404297,-0.15625,-0.34375,-0.15625,0.0,0.0,0.0
1696292007347,-0.009765625,0.08105469,0.9404297,-0.09375,-0.625,0.09375,0.0,0.0,0.0
1696292007407,-0.017578125,0.087890625,0.95410156,0.125,0.09375,0.03125,0.0,0.0,0.0
1696292007440,-0.020507812,0.08105469,0.9472656,-0.34375,-0.03125,0.03125,0.0,0.0,0.0
1696292007468,-0.009765625,0.091796875,0.94140625,-0.09375,-0.40625,0.09375,0.0,0.0,0.0
1696292007528,-0.020507812,0.091796875,0.9355469,0.03125,-0.09375,-0.15625,0.0,0.0,0.0
1696292007561,-0.0107421875,0.08691406,0.94140625,0.03125,-0.21875,0.09375,0.0,0.0,0.0
1696292007587,-0.022460938,0.080078125,0.9482422,-0.15625,-0.21875,-0.09375,0.0,0.0,0.0
1696292007648,-0.020507812,0.08203125,0.9375,-0.28125,-0.15625,0.03125,0.0,0.0,0.0
1696292007680,-0.016601562,0.08105469,0.93847656,0.03125,0.15625,-0.09375,0.0,0.0,0.0
1696292007710,-0.016601562,0.078125,0.9472656,0.125,0.15625,0.03125,0.0,0.0,0.0
1696292007772,-0.0126953125,0.087890625,0.9472656,-0.46875,-0.21875,0.03125,-20.5625,-36.5625,-168.8125
1696292007800,-0.0146484375,0.07421875,0.9316406,-0.21875,-0.40625,-0.03125,0.0,0.0,0.0
1696292007829,-0.026367188,0.0859375,0.9472656,-0.03125,0.28125,0.09375,0.0,0.0,0.0
1696292007893,-0.0126953125,0.07910156,0.9550781,-0.15625,-0.15625,-0.03125,0.0,0.0,0.0
1696292007922,-0.01171875,0.091796875,0.93847656,0.1875,-0.15625,0.03125,0.0,0.0,0.0
1696292007950,-0.01171875,0.08203125,0.9472656,0.03125,-0.15625,0.03125,0.0,0.0,0.0
1696292008009,-0.0048828125,0.076171875,0.9589844,0.125,0.21875,-0.09375,0.0,0.0,0.0
1696292008041,-0.020507812,0.08496094,0.94628906,-0.21875,-0.09375,-0.09375,0.0,0.0,0.0
1696292008070,-0.0126953125,0.07128906,0.94433594,-0.03125,-0.40625,0.15625,0.0,0.0,0.0
1696292008130,-0.018554688,0.076171875,0.93652344,0.25,0.03125,0.28125,0.0,0.0,0.0
1696292008167,-0.025390625,0.08496094,0.9472656,-0.21875,0.09375,-0.09375,0.0,0.0,0.0
1696292008190,-0.020507812,0.087890625,0.93652344,-0.28125,-0.28125,0.03125,0.0,0.0,0.0
1696292008255,-0.0078125,0.08105469,0.9345703,-0.03125,-0.09375,-0.03125,0.0,0.0,0.0
1696292008282,-0.013671875,0.080078125,0.93359375,0.03125,0.03125,0.09375,-20.375,-38.0625,-169.6875
1696292008307,-0.015625,0.08300781,0.93847656,-0.21875,-0.09375,-0.03125,0.0,0.0,0.0
1696292008369,-0.030273438,0.083984375,0.9453125,-0.28125,0.03125,0.03125,0.0,0.0,0.0
1696292008399,-0.018554688,0.09082031,0.9423828,0.3125,0.65625,-0.375,0.0,0.0,0.0
1696292008428,-0.01953125,0.07910156,0.9453125,-0.34375,-0.28125,0.03125,0.0,0.0,0.0
1696292008490,-0.0146484375,0.091796875,0.9433594,-0.34375,-0.34375,0.03125,0.0,0.0,0.0
1696292008518,-0.025390625,0.080078125,0.9501953,0.0625,-0.03125,0.09375,0.0,0.0,0.0
1696292008553,-0.0146484375,0.08105469,0.92871094,-0.21875,-0.09375,-0.09375,0.0,0.0,0.0
1696292008608,-0.018554688,0.08203125,0.93652344,0.125,-0.34375,-0.21875,0.0,0.0,0.0
1696292008641,-0.017578125,0.08105469,0.92871094,0.125,0.21875,0.09375,0.0,0.0,0.0
1696292008668,-0.016601562,0.08105469,0.93847656,-0.03125,0.03125,-0.28125,0.0,0.0,0.0
1696292008732,-0.0234375,0.08691406,0.93652344,-0.09375,0.03125,-0.03125,0.0,0.0,0.0
1696292008761,-0.022460938,0.080078125,0.93066406,0.03125,-0.03125,-0.03125,-21.3125,-35.8125,-168.5
1696292008790,-0.009765625,0.083984375,0.9238281,0.1875,-0.28125,0.03125,0.0,0.0,0.0
1696292008851,-0.0146484375,0.087890625,0.93847656,-0.09375,-0.03125,0.09375,0.0,0.0,0.0
1696292008881,-0.018554688,0.09082031,0.9404297,-0.15625,-0.03125,-0.21875,0.0,0.0,0.0
1696292008909,-0.01171875,0.09277344,0.94140625,-0.15625,-0.21875,-0.09375,0.0,0.0,0.0
1696292008975,-0.024414062,0.091796875,0.9277344,0.1875,0.15625,0.03125,0.0,0.0,0.0
1696292008998,-0.022460938,0.07910156,0.9404297,0.0625,-0.03125,0.15625,0.0,0.0,0.0
1696292009030,-0.013671875,0.07910156,0.9423828,-0.59375,-0.34375,0.03125,0.0,0.0,0.0
1696292009097,-0.0234375,0.08496094,0.9375,0.3125,0.40625,-0.15625,0.0,0.0,0.0
1696292009126,-0.013671875,0.09375,0.93847656,0.125,0.15625,-0.03125,0.0,0.0,0.0
1696292009147,-0.0107421875,0.08203125,0.9248047,-0.59375,-0.34375,0.15625,0.0,0.0,0.0
1696292009210,-0.0234375,0.08496094,0.93652344,-0.09375,-0.28125,0.15625,0.0,0.0,0.0
1696292009246,-0.024414062,0.08203125,0.9550781,-0.34375,0.03125,-0.03125,0.0,0.0,0.0
1696292009269,-0.025390625,0.08203125,0.9511719,-0.09375,-0.28125,-0.09375,-21.75,-35.6875,-169.6875
1696292009330,-0.018554688,0.087890625,0.9375,0.03125,-0.34375,0.15625,0.0,0.0,0.0
1696292009359,-0.0234375,0.07519531,0.9326172,-0.21875,-0.34375,-0.21875,0.0,0.0,0.0
1696292009389,-0.021484375,0.08984375,0.9472656,0.1875,-0.09375,0.03125,0.0,0.0,0.0
1696292009448,-0.021484375,0.08496094,0.9404297,-0.21875,-0.15625,0.03125,0.0,0.0,0.0
1696292009480,-0.015625,0.091796875,0.9423828,-0.46875,-1.0,0.03125,0.0,0.0,0.0
1696292009509,-0.015625,0.072265625,0.9472656,0.125,-0.21875,0.03125,0.0,0.0,0.0
1696292009569,-0.024414062,0.087890625,0.9345703,-0.53125,-0.28125,-0.09375,0.0,0.0,0.0
1696292009599,-0.017578125,0.078125,0.93847656,-0.15625,-0.5625,-0.28125,0.0,0.0,0.0
1696292009630,-0.015625,0.08203125,0.9316406,-0.03125,-0.4375,0.09375,0.0,0.0,0.0
1696292009695,-0.015625,0.08203125,0.9326172,-0.21875,-0.5625,0.03125,0.0,0.0,0.0
1696292009718,-0.025390625,0.07421875,0.9404297,-0.21875,-0.5625,0.15625,0.0,0.0,0.0
1696292009748,-0.022460938,0.083984375,0.95410156,-0.03125,0.03125,-0.09375,-21.625,-35.0625,-169.875
1696292009813,-0.013671875,0.07714844,0.93652344,0.125,-0.28125,-0.28125,0.0,0.0,0.0
1696292009844,-0.0146484375,0.083984375,0.9423828,-0.71875,-0.5,0.28125,0.0,0.0,0.0
1696292009870,-0.021484375,0.080078125,0.9355469,-0.28125,-0.6875,-0.09375,0.0,0.0,0.0
1696292009931,-0.015625,0.087890625,0.9453125,0.25,-0.09375,0.03125,0.0,0.0,0.0
1696292009961,-0.018554688,0.076171875,0.9580078,-0.53125,-0.5,-0.09375,0.0,0.0,0.0
1696292009989,-0.01171875,0.080078125,0.9453125,0.0625,-0.6875,-0.03125,0.0,0.0,0.0
1696292010051,-0.01953125,0.07324219,0.94433594,0.0625,-0.21875,-0.09375,0.0,0.0,0.0
1696292010078,-0.0107421875,0.09277344,0.9453125,-0.03125,-0.09375,-0.15625,0.0,0.0,0.0
1696292010108,-0.016601562,0.08984375,0.94921875,-0.34375,-0.15625,0.03125,0.0,0.0,0.0
1696292010140,-0.0146484375,0.087890625,0.94628906,-0.15625,-0.4375,0.03125,0.0,0.0,0.0
1696292010199,-0.013671875,0.07910156,0.9248047,0.1875,-0.40625,0.03125,0.0,0.0,0.0
1696292010229,-0.016601562,0.087890625,0.9433594,-0.34375,-0.09375,-0.03125,0.0,0.0,0.0
1696292010289,-0.018554688,0.08203125,0.9472656,-0.40625,-0.4375,-0.09375,-22.375,-37.1875,-169.25
1696292010318,-0.024414062,0.07910156,0.9355469,-0.15625,-0.5,-0.09375,0.0,0.0,0.0
1696292010348,-0.016601562,0.08984375,0.94140625,0.0625,-0.15625,-0.09375,0.0,0.0,0.0
1696292010378,-0.020507812,0.08105469,0.94140625,0.03125,-0.15625,0.09375,0.0,0.0,0.0
1696292010443,-0.017578125,0.0859375,0.9404297,-0.40625,-0.40625,-0.03125,0.0,0.0,0.0
1696292010468,-0.022460938,0.0859375,0.9501953,0.0625,0.15625,-0.03125,0.0,0.0,0.0
1696292010529,-0.0078125,0.0859375,0.9355469,0.0625,-0.03125,-0.03125,0.0,0.0,0.0
1696292010559,-0.021484375,0.08203125,0.9375,-0.46875,-0.40625,-0.03125,0.0,0.0,0.0
1696292010591,-0.017578125,0.08691406,0.93066406,-0.03125,-0.28125,0.21875,0.0,0.0,0.0
1696292010622,-0.01953125,0.07519531,0.9472656,-0.21875,-0.15625,0.03125,0.0,0.0,0.0
1696292010683,-0.013671875,0.08691406,0.93847656,-0.21875,-0.34375,-0.15625,0.0,0.0,0.0
1696292010709,-0.0107421875,0.08691406,0.9355469,0.25,-0.34375,-0.09375,0.0,0.0,0.0
1696292010741,-0.013671875,0.07910156,0.9423828,-0.09375,-0.34375,-0.09375,-22.5,-35.9375,-170.75
1696292010805,-0.022460938,0.08691406,0.9404297,-0.03125,0.03125,-0.15625,0.0,0.0,0.0
1696292010829,-0.0126953125,0.07714844,0.9423828,-0.03125,-0.03125,-0.03125,0.0,0.0,0.0
1696292010859,-0.0068359375,0.08300781,0.9375,-0.03125,-0.4375,-0.03125,0.0,0.0,0.0
1696292010922,-0.01953125,0.07910156,0.9316406,0.1875,0.09375,0.03125,0.0,0.0,0.0
1696292010950,-0.01953125,0.08691406,0.94921875,-0.28125,-0.03125,-0.03125,0.0,0.0,0.0
1696292010980,-0.0068359375,0.076171875,0.93066406,-0.09375,-0.34375,-0.15625,0.0,0.0,0.0
1696292011042,-0.013671875,0.08105469,0.9501953,0.1875,-0.28125,-0.03125,0.0,0.0,0.0
1696292011075,-0.018554688,0.078125,0.9404297,0.0625,0.09375,-0.03125,0.0,0.0,0.0
1696292011100,-0.01171875,0.083984375,0.94628906,-0.28125,-0.21875,-0.03125,0.0,0.0,0.0
1696292011166,-0.017578125,0.0859375,0.9375,-0.09375,-0.09375,0.03125,0.0,0.0,0.0
1696292011188,-0.0126953125,0.08496094,0.94140625,0.1875,0.34375,-0.21875,0.0,0.0,0.0
1696292011222,-0.024414062,0.080078125,0.9472656,-0.09375,-0.09375,0.03125,0.0,0.0,0.0
1696292011281,-0.0126953125,0.08203125,0.9404297,-0.46875,-0.40625,0.09375,-20.25,-36.5625,-168.1875
1696292011307,-0.0087890625,0.08300781,0.95214844,0.25,0.09375,0.03125,0.0,0.0,0.0
1696292011340,-0.01171875,0.083984375,0.9355469,-0.09375,-0.09375,0.15625,0.0,0.0,0.0
1696292011403,-0.013671875,0.08496094,0.93359375,0.0625,-0.28125,-0.21875,0.0,0.0,0.0
1696292011429,-0.013671875,0.08886719,0.9394531,0.25,0.28125,0.09375,0.0,0.0,0.0
1696292011461,-0.013671875,0.08105469,0.93847656,0.0625,0.15625,-0.21875,0.0,0.0,0.0
1696292011522,-0.015625,0.08691406,0.9375,-0.15625,-0.03125,-0.03125,0.0,0.0,0.0
1696292011549,-0.015625,0.08691406,0.9375,0.125,-0.28125,-0.09375,0.0,0.0,0.0
1696292011580,-0.0146484375,0.076171875,0.9472656,0.25,-0.09375,0.21875,0.0,0.0,0.0
1696292011639,-0.017578125,0.08496094,0.93359375,-0.09375,0.21875,-0.03125,0.0,0.0,0.0
1696292011668,-0.020507812,0.080078125,0.9433594,-0.03125,-0.09375,0.03125,0.0,0.0,0.0
1696292011700,-0.01171875,0.0859375,0.93847656,-0.03125,-0.03125,-0.09375,0.0,0.0,0.0
1696292011759,-0.0146484375,0.08105469,0.9453125,0.25,0.21875,0.09375,-22.625,-35.8125,-169.875
1696292011789,-0.018554688,0.08691406,0.9453125,-0.03125,0.03125,0.15625,0.0,0.0,0.0
1696292011823,-0.0234375,0.07910156,0.93359375,-0.34375,-0.15625,-0.03125,0.0,0.0,0.0
1696292011879,-0.01171875,0.07910156,0.93066406,0.3125,0.59375,-0.09375,0.0,0.0,0.0
1696292011912,-0.009765625,0.08496094,0.93359375,0.3125,0.40625,0.03125,0.0,0.0,0.0
1696292011939,-0.0068359375,0.083984375,0.93652344,-0.46875,-0.28125,-0.03125,0.0,0.0,0.0
1696292012003,-0.025390625,0.07910156,0.9423828,0.03125,-0.03125,0.09375,0.0,0.0,0.0
1696292012029,-0.0146484375,0.078125,0.9404297,0.0625,0.15625,0.21875,0.0,0.0,0.0
1696292012061,-0.021484375,0.076171875,0.92871094,0.03125,-0.03125,-0.09375,0.0,0.0,0.0
1696292012121,-0.0146484375,0.08300781,0.9326172,0.5,-0.03125,-0.03125,0.0,0.0,0.0
1696292012151,-0.01171875,0.08300781,0.9433594,-0.09375,-0.09375,-0.15625,0.0,0.0,0.0
1696292012180,-0.01953125,0.078125,0.9482422,0.03125,0.21875,-0.21875,0.0,0.0,0.0
1696292012245,-0.01171875,0.08984375,0.953125,0.03125,0.15625,-0.03125,0.0,0.0,0.0
1696292012270,-0.017578125,0.08886719,0.93359375,0.125,-0.21875,0.03125,-21.4375,-36.4375,-169.125
1696292012301,-0.020507812,0.080078125,0.9326172,0.03125,0.03125,0.15625,0.0,0.0,0.0
1696292012362,-0.009765625,0.076171875,0.9326172,-0.15625,0.15625,-0.28125,0.0,0.0,0.0
1696292012393,-0.013671875,0.08984375,0.9472656,0.125,-0.03125,-0.09375,0.0,0.0,0.0
1696292012421,-0.017578125,0.080078125,0.94921875,0.375,0.03125,0.03125,0.0,0.0,0.0
1696292012480,-0.01953125,0.08203125,0.95214844,0.0625,-0.03125,0.09375,0.0,0.0,0.0
1696292012509,-0.001953125,0.0859375,0.9453125,-0.03125,-0.09375,0.03125,0.0,0.0,0.0
1696292012540,-0.017578125,0.078125,0.9433594,0.0625,0.53125,-0.09375,0.0,0.0,0.0
1696292012599,-0.0126953125,0.087890625,0.93847656,0.3125,0.28125,-0.15625,0.0,0.0,0.0
1696292012630,-0.024414062,0.08886719,0.9433594,-0.65625,-0.28125,0.15625,0.0,0.0,0.0
1696292012662,-0.0234375,0.08984375,0.9316406,-0.28125,-0.40625,0.03125,0.0,0.0,0.0
1696292012724,-0.016601562,0.083984375,0.95214844,-0.03125,-0.09375,0.09375,0.0,0.0,0.0
1696292012749,-0.01953125,0.08300781,0.9375,-0.53125,-0.4375,-0.03125,-22.9375,-35.1875,-169.375
1696292012808,-0.013671875,0.08496094,0.9482422,0.375,-0.40625,-0.03125,0.0,0.0,0.0
1696292012840,-0.013671875,0.083984375,0.94433594,-0.09375,-0.21875,0.03125,0.0,0.0,0.0
1696292012869,-0.022460938,0.09472656,0.94628906,-0.09375,-0.15625,-0.03125,0.0,0.0,0.0
1696292012899,-0.018554688,0.091796875,0.9355469,-0.09375,-0.28125,-0.03125,0.0,0.0,0.0
1696292012961,-0.018554688,0.078125,0.94628906,-0.15625,-0.625,0.03125,0.0,0.0,0.0
1696292012987,-0.020507812,0.083984375,0.9423828,0.3125,-0.15625,0.21875,0.0,0.0,0.0
1696292013021,-0.009765625,0.08300781,0.9453125,-0.40625,-0.09375,-0.15625,0.0,0.0,0.0
1696292013084,-0.020507812,0.095703125,0.94140625,-0.21875,-0.40625,-0.03125,0.0,0.0,0.0
1696292013108,-0.01171875,0.09277344,0.94140625,0.0625,-0.46875,0.03125,0.0,0.0,0.0
1696292013138,-0.016601562,0.08300781,0.9404297,-0.125,-0.53125,0.09375,0.0,0.0,0.0
1696292013201,-0.021484375,0.08300781,0.94628906,-0.125,-0.09375,-0.03125,0.0,0.0,0.0
1696292013234,-0.021484375,0.08886719,0.94433594,-0.0625,0.21875,-0.03125,0.0,0.0,0.0
1696292013259,-0.013671875,0.083984375,0.9394531,0.0625,0.03125,-0.21875,-21.125,-37.4375,-170.4375
1696292013322,-0.015625,0.08300781,0.95214844,-0.59375,-0.28125,-0.03125,0.0,0.0,0.0
1696292013352,-0.018554688,0.083984375,0.93066406,-0.0625,-0.40625,0.03125,0.0,0.0,0.0
1696292013382,-0.0234375,0.08203125,0.9589844,0.0625,-0.03125,-0.03125,0.0,0.0,0.0
1696292013439,-0.02734375,0.083984375,0.9375,-0.34375,-0.21875,0.03125,0.0,0.0,0.0
1696292013468,-0.021484375,0.087890625,0.9394531,0.1875,-0.15625,-0.15625,0.0,0.0,0.0
1696292013500,-0.015625,0.087890625,0.94628906,0.0625,-0.09375,0.09375,0.0,0.0,0.0
1696292013560,-0.018554688,0.08203125,0.93066406,-0.0625,-0.03125,-0.09375,0.0,0.0,0.0
1696292013587,-0.018554688,0.08691406,0.9316406,-0.1875,-0.09375,-0.15625,0.0,0.0,0.0
1696292013619,-0.018554688,0.083984375,0.94628906,-0.125,-0.40625,-0.03125,0.0,0.0,0.0
1696292013679,-0.022460938,0.078125,0.9472656,0.25,-0.28125,0.15625,0.0,0.0,0.0
1696292013714,-0.017578125,0.08496094,0.93652344,-0.125,0.03125,-0.09375,0.0,0.0,0.0
1696292013741,-0.016601562,0.09277344,0.9609375,-0.1875,-0.15625,-0.15625,-21.75,-37.0,-169.6875
1696292013799,-0.018554688,0.08105469,0.9453125,-0.125,-0.15625,-0.03125,0.0,0.0,0.0
1696292013831,-0.021484375,0.08105469,0.9355469,0.0625,-0.09375,0.21875,0.0,0.0,0.0
1696292013860,-0.015625,0.08300781,0.93847656,-0.125,-0.21875,-0.03125,0.0,0.0,0.0
1696292013923,-0.024414062,0.0859375,0.9511719,-0.1875,-0.15625,0.03125,0.0,0.0,0.0
1696292013947,-0.017578125,0.09472656,0.94628906,0.1875,0.21875,-0.15625,0.0,0.0,0.0
1696292013980,-0.020507812,0.083984375,0.9423828,-0.0625,-0.03125,0.09375,0.0,0.0,0.0
1696292014041,-0.015625,0.09082031,0.9326172,-0.3125,-0.34375,-0.03125,0.0,0.0,0.0
1696292014070,-0.0126953125,0.07714844,0.9375,0.25,0.15625,0.03125,0.0,0.0,0.0
1696292014103,-0.024414062,0.08203125,0.93359375,-0.25,0.03125,-0.03125,0.0,0.0,0.0
1696292014158,-0.01953125,0.08984375,0.9482422,0.0625,-0.34375,-0.03125,0.0,0.0,0.0
1696292014190,-0.020507812,0.08105469,0.93847656,0.25,0.09375,0.03125,0.0,0.0,0.0
1696292014218,-0.024414062,0.08691406,0.9501953,-0.0625,-0.03125,-0.03125,0.0,0.0,0.0
1696292014281,-0.021484375,0.08300781,0.9316406,-0.125,0.03125,0.03125,-19.8125,-35.0625,-169.25
1696292014308,-0.0146484375,0.08886719,0.9482422,-0.125,-0.34375,-0.03125,0.0,0.0,0.0
1696292014338,-0.015625,0.07714844,0.9355469,0.3125,-0.03125,0.09375,0.0,0.0,0.0
1696292014398,-0.013671875,0.08984375,0.94628906,-0.25,0.03125,-0.03125,0.0,0.0,0.0
1696292014430,-0.020507812,0.0859375,0.9423828,-0.34375,-0.28125,-0.09375,0.0,0.0,0.0
1696292014460,-0.009765625,0.087890625,0.94628906,0.0,-0.28125,-0.09375,0.0,0.0,0.0
1696292014520,-0.018554688,0.08886719,0.9404297,0.25,0.09375,-0.03125,0.0,0.0,0.0
1696292014551,-0.022460938,0.08886719,0.9404297,-0.125,-0.21875,0.09375,0.0,0.0,0.0
1696292014580,-0.01171875,0.08203125,0.9423828,-0.25,-0.28125,0.15625,0.0,0.0,0.0
1696292014642,-0.0146484375,0.083984375,0.94433594,0.125,0.40625,-0.15625,0.0,0.0,0.0
1696292014670,-0.0087890625,0.08203125,0.9394531,0.125,0.09375,0.09375,0.0,0.0,0.0
1696292014699,-0.018554688,0.08691406,0.94433594,-0.3125,-0.15625,0.03125,0.0,0.0,0.0
1696292014761,-0.015625,0.08496094,0.93359375,0.0625,-0.03125,-0.03125,-20.6875,-38.0625,-169.6875
1696292014790,-0.024414062,0.07910156,0.9326172,0.0625,0.28125,0.09375,0.0,0.0,0.0
1696292014818,-0.01953125,0.076171875,0.9638672,-0.1875,-0.15625,-0.03125,0.0,0.0,0.0
1696292014908,-0.024414062,0.07910156,0.9472656,0.3125,0.09375,-0.03125,0.0,0.0,0.0
1696292014910,-0.0126953125,0.08886719,0.93847656,0.125,0.09375,-0.15625,0.0,0.0,0.0
1696292014941,-0.0146484375,0.083984375,0.9433594,-0.0625,0.09375,0.09375,0.0,0.0,0.0
1696292015003,-0.0146484375,0.07910156,0.9433594,0.0,0.09375,-0.15625,0.0,0.0,0.0
1696292015033,-0.0087890625,0.087890625,0.93847656,0.0625,-0.21875,0.15625,0.0,0.0,0.0
1696292015090,-0.016601562,0.080078125,0.94433594,-0.125,0.09375,0.09375,0.0,0.0,0.0
1696292015117,-0.022460938,0.09277344,0.93652344,-0.0625,0.09375,-0.09375,0.0,0.0,0.0
1696292015149,-0.018554688,0.083984375,0.9511719,-0.0625,0.09375,-0.03125,0.0,0.0,0.0
1696292015181,-0.020507812,0.076171875,0.94628906,0.125,0.03125,-0.03125,0.0,0.0,0.0
1696292015238,-0.0107421875,0.08105469,0.9453125,0.0,-0.03125,0.15625,0.0,0.0,0.0
1696292015267,-0.018554688,0.08496094,0.93066406,-0.3125,-0.09375,0.09375,-21.4375,-35.9375,-170.125
1696292015299,-0.016601562,0.080078125,0.94628906,-0.0625,0.28125,-0.09375,0.0,0.0,0.0
1696292015360,-0.0126953125,0.08203125,0.9404297,0.5,0.40625,-0.21875,0.0,0.0,0.0
1696292015388,-0.013671875,0.087890625,0.9472656,-0.40625,0.09375,-0.03125,0.0,0.0,0.0
1696292015419,-0.016601562,0.08691406,0.93847656,-0.125,-0.28125,0.15625,0.0,0.0,0.0
1696292015480,-0.022460938,0.080078125,0.93847656,0.0,0.34375,0.09375,0.0,0.0,0.0
1696292015508,-0.020507812,0.08300781,0.94628906,-0.1875,-0.03125,-0.09375,0.0,0.0,0.0
1696292015539,-0.0146484375,0.07714844,0.9326172,0.5,-0.03125,0.09375,0.0,0.0,0.0
1696292015602,-0.024414062,0.08300781,0.94628906,0.1875,0.09375,-0.09375,0.0,0.0,0.0
1696292015628,-0.017578125,0.08105469,0.93359375,-0.0625,0.21875,-0.09375,0.0,0.0,0.0
1696292015658,-0.016601562,0.083984375,0.9482422,-0.0625,0.21875,-0.21875,0.0,0.0,0.0
1696292015720,-0.01953125,0.08691406,0.9277344,0.0625,-0.15625,0.03125,0.0,0.0,0.0
1696292015759,-0.020507812,0.078125,0.94140625,-0.03125,0.09375,0.0625,-22.0625,-35.5,-170.625
1696292015778,-0.0126953125,0.08984375,0.9472656,-0.125,0.28125,-0.21875,0.0,0.0,0.0
1696292015839,-0.020507812,0.083984375,0.9267578,-0.03125,0.09375,-0.09375,0.0,0.0,0.0
1696292015868,-0.016601562,0.08105469,0.93652344,0.09375,-0.03125,0.03125,0.0,0.0,0.0
1696292015902,-0.020507812,0.08691406,0.9355469,0.15625,0.03125,-0.03125,0.0,0.0,0.0
1696292015963,-0.02734375,0.07519531,0.93652344,-0.375,-0.28125,0.0625,0.0,0.0,0.0
1696292015988,-0.0234375,0.087890625,0.93652344,-0.125,0.28125,-0.21875,0.0,0.0,0.0
1696292016019,-0.005859375,0.083984375,0.94433594,0.59375,0.21875,-0.34375,0.0,0.0,0.0
1696292016080,-0.016601562,0.08691406,0.9326172,-0.6875,-0.15625,0.03125,0.0,0.0,0.0
1696292016108,0.0029296875,0.08984375,0.9326172,-0.375,-0.34375,0.03125,0.0,0.0,0.0
1696292016141,-0.017578125,0.08300781,0.9404297,-0.125,-0.21875,0.125,0.0,0.0,0.0
1696292016202,-0.01953125,0.07910156,0.9316406,-0.3125,-0.28125,0.03125,0.0,0.0,0.0
1696292016235,-0.0126953125,0.08203125,0.93066406,0.53125,-0.09375,-0.15625,0.0,0.0,0.0
1696292016259,-0.0107421875,0.08105469,0.93847656,-0.125,0.09375,-0.03125,-22.5,-35.9375,-169.125
1696292016320,-0.018554688,0.076171875,0.9375,-0.25,-0.21875,-0.03125,0.0,0.0,0.0
1696292016347,-0.022460938,0.08300781,0.9326172,-0.1875,-0.53125,0.0625,0.0,0.0,0.0
1696292016378,-0.01171875,0.07714844,0.9453125,-0.125,-0.71875,0.03125,0.0,0.0,0.0
1696292016439,-0.021484375,0.087890625,0.9404297,0.15625,-0.03125,0.0625,0.0,0.0,0.0
1696292016469,-0.0234375,0.09277344,0.9472656,-0.625,-0.21875,-0.15625,0.0,0.0,0.0
1696292016499,-0.018554688,0.080078125,0.9482422,-0.1875,-0.46875,-0.15625,0.0,0.0,0.0
1696292016559,-0.01171875,0.083984375,0.94628906,0.09375,-0.46875,0.0625,0.0,0.0,0.0
1696292016590,-0.017578125,0.076171875,0.9296875,-0.1875,-0.34375,0.03125,0.0,0.0,0.0
1696292016617,-0.018554688,0.08496094,0.9423828,-0.1875,-0.21875,0.0625,0.0,0.0,0.0
1696292016678,-0.028320312,0.083984375,0.9453125,-0.1875,0.03125,0.03125,0.0,0.0,0.0
1696292016717,-0.0078125,0.091796875,0.9375,0.15625,-0.15625,-0.21875,0.0,0.0,0.0
1696292016739,-0.016601562,0.09277344,0.9296875,-0.625,-0.34375,0.125,-20.375,-37.75,-168.375
1696292016801,-0.013671875,0.08691406,0.9472656,-0.1875,-0.40625,0.0625,0.0,0.0,0.0
1696292016828,-0.017578125,0.07910156,0.9501953,0.03125,-0.09375,0.0625,0.0,0.0,0.0
1696292016859,-0.01953125,0.08691406,0.93359375,-0.4375,-0.28125,-0.09375,0.0,0.0,0.0
1696292016923,-0.013671875,0.076171875,0.9355469,0.34375,-0.46875,0.03125,0.0,0.0,0.0
1696292016953,-0.0087890625,0.076171875,0.9453125,0.03125,-0.15625,-0.03125,0.0,0.0,0.0
1696292016979,-0.0234375,0.08886719,0.9355469,0.03125,-0.03125,-0.03125,0.0,0.0,0.0
1696292017069,-0.0146484375,0.08203125,0.93066406,-0.25,-0.28125,-0.03125,0.0,0.0,0.0
1696292017071,-0.01171875,0.083984375,0.9355469,-0.125,-0.34375,-0.03125,0.0,0.0,0.0
1696292017099,-0.021484375,0.08105469,0.9453125,0.28125,-0.28125,0.125,0.0,0.0,0.0
1696292017188,-0.0078125,0.07324219,0.93652344,-0.3125,0.15625,-0.21875,0.0,0.0,0.0
1696292017190,-0.015625,0.08886719,0.9472656,-0.3125,-0.40625,-0.03125,0.0,0.0,0.0
1696292017220,-0.018554688,0.08105469,0.9345703,-0.03125,-0.28125,-0.21875,0.0,0.0,0.0
1696292017308,-0.020507812,0.087890625,0.95214844,0.03125,-0.15625,0.03125,-19.8125,-35.5,-169.875
1696292017310,-0.01171875,0.07910156,0.9511719,-0.09375,-0.09375,-0.15625,0.0,0.0,0.0
1696292017371,-0.021484375,0.08105469,0.9433594,-0.3125,-0.28125,-0.03125,0.0,0.0,0.0
1696292017398,-0.009765625,0.08496094,0.94628906,0.28125,0.15625,-0.21875,0.0,0.0,0.0
1696292017460,-0.0068359375,0.08300781,0.9355469,-0.1875,0.09375,-0.03125,0.0,0.0,0.0
1696292017462,-0.016601562,0.09277344,0.94140625,-0.375,-0.28125,0.0625,0.0,0.0,0.0
1696292017522,-0.022460938,0.080078125,0.94628906,0.21875,-0.09375,-0.03125,0.0,0.0,0.0
1696292017547,-0.016601562,0.078125,0.9453125,-0.375,-0.15625,0.03125,0.0,0.0,0.0
1696292017583,-0.01171875,0.080078125,0.9345703,0.15625,-0.46875,-0.03125,0.0,0.0,0.0
1696292017640,-0.0234375,0.08691406,0.92871094,0.15625,0.09375,0.03125,0.0,0.0,0.0
1696292017680,-0.0146484375,0.080078125,0.9501953,-0.03125,-0.03125,-0.09375,0.0,0.0,0.0
1696292017699,-0.009765625,0.08496094,0.9501953,0.03125,-0.09375,0.03125,0.0,0.0,0.0
1696292017763,-0.017578125,0.08105469,0.93359375,-0.125,-0.34375,0.03125,-22.0625,-35.0625,-170.3125
1696292017787,-0.017578125,0.083984375,0.94628906,0.03125,-0.28125,-0.03125,0.0,0.0,0.0
1696292017821,-0.018554688,0.08105469,0.93652344,-0.09375,0.03125,0.03125,0.0,0.0,0.0
1696292017885,-0.017578125,0.08203125,0.94433594,-0.1875,-0.09375,-0.09375,0.0,0.0,0.0
1696292017915,-0.01171875,0.08496094,0.94628906,-0.1875,-0.40625,0.03125,0.0,0.0,0.0
1696292017940,-0.0107421875,0.08203125,0.9375,0.28125,-0.03125,0.03125,0.0,0.0,0.0
1696292018005,-0.0146484375,0.083984375,0.9316406,0.09375,-0.03125,0.125,0.0,0.0,0.0
1696292018030,-0.03125,0.08886719,0.93359375,-0.5,-0.15625,-0.03125,0.0,0.0,0.0
1696292018060,-0.026367188,0.07910156,0.9375,0.09375,0.21875,-0.15625,0.0,0.0,0.0
1696292018119,-0.0126953125,0.087890625,0.9326172,0.53125,0.21875,-0.09375,0.0,0.0,0.0
1696292018148,-0.0078125,0.08886719,0.94628906,-0.6875,-0.21875,-0.03125,0.0,0.0,0.0
1696292018178,-0.01171875,0.07714844,0.9404297,-0.1875,-0.21875,0.03125,0.0,0.0,0.0
1696292018239,-0.018554688,0.07128906,0.9501953,0.15625,0.28125,0.1875,0.0,0.0,0.0
1696292018269,-0.020507812,0.078125,0.9433594,-0.375,-0.09375,-0.21875,-22.1875,-35.9375,-167.625
1696292018298,-0.01171875,0.083984375,0.9511719,0.40625,-0.15625,-0.03125,0.0,0.0,0.0
1696292018363,-0.016601562,0.08300781,0.953125,0.09375,0.15625,0.0625,0.0,0.0,0.0
1696292018390,-0.021484375,0.07910156,0.9296875,-0.09375,0.03125,-0.0625,0.0,0.0,0.0
1696292018420,-0.017578125,0.08691406,0.9511719,-0.03125,0.09375,0.0,0.0,0.0,0.0
1696292018478,-0.013671875,0.08984375,0.93359375,0.09375,-0.25,0.21875,0.0,0.0,0.0
1696292018508,-0.021484375,0.08105469,0.93652344,0.09375,0.15625,0.09375,0.0,0.0,0.0
1696292018537,-0.021484375,0.08300781,0.93847656,-0.21875,0.09375,-0.0625,0.0,0.0,0.0
1696292018600,-0.020507812,0.08203125,0.93359375,-0.15625,0.0,-0.1875,0.0,0.0,0.0
1696292018628,-0.017578125,0.09667969,0.9296875,-0.03125,-0.125,-0.0625,0.0,0.0,0.0
1696292018659,-0.015625,0.08105469,0.9375,0.15625,0.09375,0.09375,0.0,0.0,0.0
1696292018718,-0.017578125,0.08300781,0.93359375,-0.09375,0.0,0.09375,0.0,0.0,0.0
1696292018752,-0.025390625,0.08105469,0.94628906,-0.28125,0.03125,0.03125,0.0,0.0,0.0
1696292018778,-0.013671875,0.08300781,0.94433594,0.5,0.65625,-0.4375,-22.0625,-35.5,-170.3125
1696292018844,-0.016601562,0.08105469,0.94921875,-0.40625,-0.125,0.03125,0.0,0.0,0.0
1696292018867,-0.020507812,0.08300781,0.9501953,-0.46875,-0.125,0.15625,0.0,0.0,0.0
1696292018902,-0.01171875,0.08203125,0.9355469,0.21875,0.15625,0.09375,0.0,0.0,0.0
1696292018962,-0.02734375,0.08105469,0.93652344,-0.15625,0.0,0.09375,0.0,0.0,0.0
1696292018989,-0.013671875,0.08105469,0.9296875,0.15625,-0.25,-0.1875,0.0,0.0,0.0
1696292019020,-0.0126953125,0.08300781,0.9375,0.09375,0.28125,0.15625,0.0,0.0,0.0
1696292019049,-0.020507812,0.08300781,0.94433594,-0.03125,0.0,-0.0625,0.0,0.0,0.0
1696292019109,-0.0234375,0.08105469,0.9453125,-0.03125,0.03125,-0.0625,0.0,0.0,0.0
1696292019138,-0.013671875,0.07519531,0.9482422,-0.03125,-0.1875,0.03125,0.0,0.0,0.0
1696292019170,-0.021484375,0.08886719,0.9316406,0.09375,-0.1875,0.09375,0.0,0.0,0.0
1696292019230,-0.018554688,0.08300781,0.9326172,-0.46875,-0.0625,-0.0625,0.0,0.0,0.0
1696292019258,-0.013671875,0.0859375,0.9501953,-0.03125,0.03125,-0.125,-22.625,-38.375,-169.5625
1696292019291,-0.013671875,0.08300781,0.93652344,0.03125,-0.125,0.03125,0.0,0.0,0.0
1696292019348,-0.016601562,0.087890625,0.9453125,0.03125,-0.25,0.03125,0.0,0.0,0.0
1696292019380,-0.0126953125,0.08203125,0.9453125,-0.28125,-0.1875,0.03125,0.0,0.0,0.0
1696292019411,-0.024414062,0.07519531,0.94628906,-0.46875,-0.125,0.03125,0.0,0.0,0.0
1696292019469,-0.015625,0.08203125,0.9394531,0.21875,0.34375,-0.3125,0.0,0.0,0.0
1696292019504,-0.0146484375,0.087890625,0.9423828,-0.09375,-0.25,0.03125,0.0,0.0,0.0
1696292019529,-0.016601562,0.0859375,0.9453125,-0.53125,-0.375,0.03125,0.0,0.0,0.0
1696292019648,-0.017578125,0.072265625,0.93359375,-0.09375,-0.4375,0.09375,0.0,0.0,0.0
1696292019650,-0.017578125,0.07910156,0.94628906,-0.40625,-0.25,-0.1875,0.0,0.0,0.0
1696292019651,-0.021484375,0.08496094,0.9482422,-0.03125,-0.5625,-0.125,0.0,0.0,0.0
1696292019710,-0.0234375,0.08203125,0.93359375,0.15625,-0.1875,0.03125,0.0,0.0,0.0
1696292019741,-0.017578125,0.08300781,0.9326172,-0.15625,-0.25,-0.125,0.0,0.0,0.0
1696292019769,-0.0234375,0.0859375,0.9267578,-0.15625,-0.125,0.03125,-21.75,-36.4375,-169.6875
1696292019828,-0.024414062,0.08105469,0.94140625,-0.28125,-0.3125,0.0,0.0,0.0,0.0
1696292019861,-0.0146484375,0.08984375,0.953125,0.15625,-0.5625,0.09375,0.0,0.0,0.0
1696292019888,-0.0126953125,0.080078125,0.93066406,-0.15625,-0.25,0.03125,0.0,0.0,0.0
1696292019948,-0.024414062,0.08496094,0.9501953,-0.34375,0.0,-0.125,0.0,0.0,0.0
1696292019978,-0.0126953125,0.078125,0.9453125,-0.09375,-0.25,0.09375,0.0,0.0,0.0
1696292020007,-0.0126953125,0.078125,0.9482422,-0.03125,-0.1875,0.03125,0.0,0.0,0.0
1696292020068,-0.017578125,0.08300781,0.9472656,0.03125,-0.1875,0.0,0.0,0.0,0.0
1696292020100,-0.01171875,0.08496094,0.9609375,-0.34375,-0.375,0.03125,0.0,0.0,0.0
1696292020129,-0.018554688,0.080078125,0.94628906,-0.03125,0.03125,-0.1875,0.0,0.0,0.0
1696292020190,-0.016601562,0.0859375,0.9453125,0.21875,0.0,-0.0625,0.0,0.0,0.0
1696292020230,-0.018554688,0.08300781,0.9296875,-0.53125,-0.125,-0.0625,0.0,0.0,0.0
1696292020247,-0.01171875,0.08691406,0.93652344,0.03125,-0.375,0.09375,-21.4375,-35.6875,-168.375
1696292020309,-0.0107421875,0.080078125,0.9482422,-0.15625,-0.125,0.03125,0.0,0.0,0.0
1696292020368,-0.020507812,0.09082031,0.92089844,-0.40625,-0.3125,-0.0625,0.0,0.0,0.0
1696292020369,-0.0146484375,0.08496094,0.9453125,0.28125,-0.25,-0.0625,0.0,0.0,0.0
1696292020429,-0.015625,0.080078125,0.9375,-0.09375,-0.25,-0.125,0.0,0.0,0.0
1696292020461,-0.01171875,0.08203125,0.9375,0.03125,0.0,-0.0625,0.0,0.0,0.0
1696292020490,-0.025390625,0.080078125,0.9355469,-0.21875,-0.0625,-0.0625,0.0,0.0,0.0
1696292020555,-0.013671875,0.0859375,0.9511719,0.03125,-0.4375,0.09375,0.0,0.0,0.0
1696292020580,-0.009765625,0.07421875,0.9326172,0.03125,-0.125,0.03125,0.0,0.0,0.0
1696292020608,-0.015625,0.087890625,0.9394531,-0.28125,-0.125,-0.125,0.0,0.0,0.0
1696292020669,-0.013671875,0.08105469,0.93652344,-0.21875,-0.375,-0.1875,0.0,0.0,0.0
1696292020702,-0.0146484375,0.08496094,0.9560547,0.09375,-0.0625,0.0,0.0,0.0,0.0
1696292020728,-0.015625,0.080078125,0.9423828,-0.09375,-0.0625,0.03125,0.0,0.0,0.0
1696292020791,-0.009765625,0.08203125,0.92578125,-0.40625,-0.3125,0.0,-22.0625,-34.3125,-168.8125
1696292020819,-0.024414062,0.083984375,0.9658203,-0.09375,0.09375,-0.0625,0.0,0.0,0.0
1696292020849,-0.0126953125,0.08496094,0.9404297,0.28125,0.03125,-0.25,0.0,0.0,0.0
1696292020907,-0.0078125,0.083984375,0.9423828,-0.34375,-0.0625,-0.0625,0.0,0.0,0.0
1696292020938,-0.03125,0.08496094,0.94140625,-0.40625,-0.5,0.03125,0.0,0.0,0.0
1696292020967,-0.016601562,0.08105469,0.9404297,0.09375,0.0,0.09375,0.0,0.0,0.0
1696292021030,-0.018554688,0.08203125,0.93066406,-0.15625,-0.375,0.0,0.0,0.0,0.0
1696292021093,-0.009765625,0.08984375,0.9169922,0.15625,-0.1875,0.0,0.0,0.0,0.0
1696292021096,-0.020507812,0.083984375,0.9375,-0.15625,-0.1875,0.03125,0.0,0.0,0.0
1696292021151,-0.015625,0.07519531,0.95214844,-0.09375,-0.0625,-0.125,0.0,0.0,0.0
1696292021181,-0.01953125,0.0859375,0.9375,-0.09375,-0.0625,0.0,0.0,0.0,0.0
1696292021208,-0.013671875,0.080078125,0.93652344,0.03125,-0.4375,0.09375,0.0,0.0,0.0
1696292021268,-0.0126953125,0.08886719,0.94628906,0.15625,-0.0625,0.03125,-21.4375,-35.1875,-170.75
1696292021299,-0.0234375,0.076171875,0.9296875,-0.34375,-0.0625,-0.125,0.0,0.0,0.0
1696292021328,-0.02734375,0.07714844,0.95703125,-0.15625,-0.4375,0.0,0.0,0.0,0.0
1696292021391,-0.021484375,0.08300781,0.9375,-0.09375,-0.125,-0.125,0.0,0.0,0.0
1696292021419,-0.018554688,0.078125,0.9355469,0.15625,0.0,0.0,0.0,0.0,0.0
1696292021449,-0.015625,0.080078125,0.953125,-0.09375,-0.1875,0.03125,0.0,0.0,0.0
1696292021510,-0.020507812,0.08105469,0.95214844,-0.21875,-0.1875,0.0,0.0,0.0,0.0
1696292021540,-0.017578125,0.08105469,0.9511719,0.09375,0.28125,-0.1875,0.0,0.0,0.0
1696292021568,-0.013671875,0.080078125,0.95410156,-0.03125,0.21875,0.0,0.0,0.0,0.0
1696292021629,-0.020507812,0.080078125,0.9316406,-0.40625,-0.25,0.03125,0.0,0.0,0.0
1696292021659,-0.016601562,0.08203125,0.94140625,0.21875,-0.125,0.03125,0.0,0.0,0.0
1696292021688,-0.016601562,0.08984375,0.9482422,-0.15625,-0.1875,0.09375,0.0,0.0,0.0
1696292021749,-0.0078125,0.072265625,0.9404297,-0.34375,-0.4375,-0.0625,0.0,0.0,0.0
1696292021779,-0.021484375,0.08105469,0.9501953,0.15625,0.0,0.09375,-21.125,-36.4375,-169.6875
1696292021808,-0.0126953125,0.07421875,0.9423828,-0.03125,0.0,-0.125,0.0,0.0,0.0
1696292021872,-0.021484375,0.0859375,0.9345703,0.03125,0.0,0.09375,0.0,0.0,0.0
1696292021930,-0.013671875,0.08496094,0.9482422,-0.34375,-0.3125,0.03125,0.0,0.0,0.0
1696292021933,-0.0078125,0.09765625,0.9394531,0.21875,-0.25,0.0,0.0,0.0,0.0
1696292021992,-0.0107421875,0.080078125,0.93359375,-0.09375,-0.125,-0.0625,0.0,0.0,0.0
1696292022024,-0.020507812,0.08886719,0.9375,-0.40625,-0.0625,-0.25,0.0,0.0,0.0
1696292022081,-0.01171875,0.083984375,0.9580078,-0.03125,-0.1875,0.0,0.0,0.0,0.0
1696292022109,-0.013671875,0.07714844,0.9550781,0.09375,0.0,0.03125,0.0,0.0,0.0
1696292022173,-0.01171875,0.078125,0.93652344,-0.09375,-0.125,0.09375,0.0,0.0,0.0
1696292022176,-0.016601562,0.0859375,0.93066406,-0.28125,-0.1875,-0.0625,0.0,0.0,0.0
1696292022229,-0.0146484375,0.0859375,0.96484375,-0.09375,-0.125,0.03125,0.0,0.0,0.0
1696292022260,-0.01171875,0.08300781,0.9296875,0.28125,0.21875,-0.1875,-20.6875,-35.6875,-170.125
1696292022288,-0.013671875,0.080078125,0.9423828,-0.46875,-0.1875,0.03125,0.0,0.0,0.0
1696292022349,-0.0146484375,0.08496094,0.9453125,-0.40625,-0.5,0.03125,0.0,0.0,0.0
1696292022379,-0.015625,0.07519531,0.9423828,0.09375,0.0,0.15625,0.0,0.0,0.0
1696292022408,-0.009765625,0.07910156,0.9423828,-0.21875,-0.1875,0.0,0.0,0.0,0.0
1696292022481,-0.0078125,0.078125,0.9404297,0.28125,-0.3125,-0.0625,0.0,0.0,0.0
1696292022498,-0.015625,0.08203125,0.9423828,-0.09375,-0.125,-0.0625,0.0,0.0,0.0
1696292022529,-0.0126953125,0.083984375,0.94628906,-0.09375,0.0,-0.0625,0.0,0.0,0.0
1696292022589,-0.0146484375,0.08886719,0.9472656,-0.09375,-0.125,0.0,0.0,0.0,0.0
1696292022623,-0.0087890625,0.07910156,0.9169922,-0.09375,-0.4375,0.15625,0.0,0.0,0.0
1696292022648,-0.015625,0.083984375,0.9375,0.21875,0.0,0.0,0.0,0.0,0.0
1696292022712,-0.021484375,0.087890625,0.94433594,-0.28125,0.03125,0.0,0.0,0.0,0.0
1696292022750,-0.016601562,0.083984375,0.9375,-0.21875,-0.3125,-0.0625,0.0,0.0,0.0
1696292022768,-0.0146484375,0.0859375,0.9472656,0.03125,-0.3125,-0.0625,-21.3125,-35.5,-170.875
1696292022829,-0.005859375,0.078125,0.9482422,0.21875,0.21875,0.09375,0.0,0.0,0.0
1696292022859,-0.0068359375,0.076171875,0.9423828,-0.15625,-0.125,0.0,0.0,0.0,0.0
1696292022888,-0.016601562,0.08300781,0.93847656,-0.40625,-0.125,0.0,0.0,0.0,0.0
1696292022955,-0.021484375,0.083984375,0.9453125,0.21875,0.28125,-0.1875,0.0,0.0,0.0
1696292022986,-0.017578125,0.080078125,0.9472656,0.21875,0.09375,-0.0625,0.0,0.0,0.0
1696292023009,-0.018554688,0.087890625,0.9404297,-0.65625,-0.375,0.03125,0.0,0.0,0.0
1696292023099,-0.018554688,0.07519531,0.94140625,-0.09375,-0.1875,0.09375,0.0,0.0,0.0
1696292023101,-0.030273438,0.07910156,0.9580078,-0.03125,0.03125,0.03125,0.0,0.0,0.0
1696292023129,-0.0234375,0.083984375,0.93652344,-0.28125,-0.3125,0.0,0.0,0.0,0.0
1696292023192,-0.016601562,0.08203125,0.9355469,0.40625,0.0,0.09375,0.0,0.0,0.0
1696292023225,-0.018554688,0.080078125,0.9404297,-0.09375,-0.0625,-0.0625,0.0,0.0,0.0
1696292023249,-0.0234375,0.078125,0.9423828,-0.03125,0.09375,-0.0625,-21.3125,-35.8125,-168.8125
1696292023308,-0.016601562,0.08105469,0.93652344,-0.15625,-0.125,0.0,0.0,0.0,0.0
1696292023345,-0.018554688,0.083984375,0.9394531,0.15625,-0.4375,0.15625,0.0,0.0,0.0
1696292023368,-0.015625,0.07421875,0.9453125,-0.03125,0.0,0.0,0.0,0.0,0.0
1696292023430,-0.0146484375,0.07519531,0.94921875,-0.28125,0.0,-0.0625,0.0,0.0,0.0
1696292023460,-0.0126953125,0.08300781,0.9394531,-0.09375,-0.3125,0.0,0.0,0.0,0.0
1696292023488,-0.015625,0.08984375,0.9501953,-0.09375,-0.125,0.09375,0.0,0.0,0.0
1696292023549,-0.016601562,0.07324219,0.94140625,0.15625,0.03125,0.15625,0.0,0.0,0.0
1696292023581,-0.015625,0.087890625,0.9423828,-0.34375,-0.1875,-0.0625,0.0,0.0,0.0
1696292023608,-0.020507812,0.07910156,0.9355469,-0.28125,-0.125,0.03125,0.0,0.0,0.0
1696292023679,-0.0146484375,0.08203125,0.9453125,0.40625,0.21875,-0.125,0.0,0.0,0.0
1696292023703,-0.017578125,0.087890625,0.94628906,-0.09375,-0.0625,0.09375,0.0,0.0,0.0
1696292023729,-0.0107421875,0.08203125,0.9560547,-0.46875,-0.3125,0.0,0.0,0.0,0.0
1696292023791,-0.020507812,0.07910156,0.9394531,0.03125,-0.0625,0.09375,-21.75,-35.1875,-171.0625
1696292023825,-0.015625,0.083984375,0.9375,-0.21875,-0.1875,-0.0625,0.0,0.0,0.0
1696292023848,-0.017578125,0.076171875,0.9355469,0.09375,-0.375,0.0,0.0,0.0,0.0
1696292023913,-0.015625,0.08984375,0.9453125,0.15625,0.03125,0.0,0.0,0.0,0.0
1696292023939,-0.013671875,0.08496094,0.9345703,-0.28125,-0.125,-0.0625,0.0,0.0,0.0
1696292023967,-0.013671875,0.09082031,0.9453125,-0.09375,-0.0625,0.03125,0.0,0.0,0.0
1696292024035,-0.018554688,0.08105469,0.9550781,-0.09375,-0.3125,-0.0625,0.0,0.0,0.0
1696292024058,-0.0126953125,0.08984375,0.94921875,0.40625,-0.1875,0.03125,0.0,0.0,0.0
1696292024090,-0.017578125,0.076171875,0.9375,-0.34375,0.0,0.0,0.0,0.0,0.0
1696292024148,-0.016601562,0.080078125,0.94140625,-0.40625,-0.125,-0.0625,0.0,0.0,0.0
1696292024214,-0.017578125,0.08203125,0.94140625,0.21875,-0.125,0.03125,0.0,0.0,0.0
1696292024218,-0.0146484375,0.080078125,0.9326172,0.15625,0.09375,0.21875,0.0,0.0,0.0
1696292024269,-0.00390625,0.07910156,0.9404297,-0.09375,-0.125,0.15625,-22.625,-37.625,-169.25
1696292024302,-0.0048828125,0.08203125,0.9326172,-0.28125,-0.0625,-0.0625,0.0,0.0,0.0
1696292024328,-0.022460938,0.07519531,0.95996094,0.09375,0.34375,0.03125,0.0,0.0,0.0
1696292024391,-0.022460938,0.083984375,0.9326172,0.28125,0.34375,-0.25,0.0,0.0,0.0
1696292024420,-0.0126953125,0.083984375,0.95410156,-0.65625,-0.125,0.03125,0.0,0.0,0.0
1696292024447,-0.013671875,0.07324219,0.93847656,-0.28125,-0.375,0.09375,0.0,0.0,0.0
1696292024508,-0.015625,0.07910156,0.94140625,0.09375,0.15625,0.15625,0.0,0.0,0.0
1696292024537,-0.016601562,0.08203125,0.9433594,-0.34375,0.03125,-0.0625,0.0,0.0,0.0
1696292024572,-0.00390625,0.08691406,0.9501953,0.34375,-0.125,0.0,0.0,0.0,0.0
1696292024627,-0.0146484375,0.08105469,0.9433594,-0.03125,0.03125,0.0,0.0,0.0,0.0
1696292024661,-0.015625,0.08886719,0.9501953,0.15625,0.28125,-0.1875,0.0,0.0,0.0
1696292024688,-0.017578125,0.083984375,0.953125,-0.03125,0.09375,0.0,0.0,0.0,0.0
1696292024754,-0.017578125,0.08496094,0.93847656,-0.09375,-0.125,0.03125,0.0,0.0,0.0
1696292024778,-0.020507812,0.078125,0.9453125,0.21875,0.0,0.09375,-21.625,-35.8125,-169.5625
1696292024809,-0.018554688,0.07910156,0.9433594,-0.09375,0.28125,-0.0625,0.0,0.0,0.0
1696292024870,-0.01171875,0.083984375,0.95703125,0.0625,0.125,-0.15625,0.0,0.0,0.0
1696292024901,-0.0146484375,0.08300781,0.953125,-0.125,-0.25,-0.03125,0.0,0.0,0.0
1696292024929,-0.0078125,0.08105469,0.94433594,0.3125,0.25,0.03125,0.0,0.0,0.0
1696292024991,-0.0087890625,0.08496094,0.94628906,0.0,0.125,0.03125,0.0,0.0,0.0
1696292025021,-0.022460938,0.08105469,0.9433594,-0.5,-0.1875,0.03125,0.0,0.0,0.0
1696292025047,-0.01953125,0.08691406,0.9404297,0.375,0.6875,-0.40625,0.0,0.0,0.0
1696292025109,-0.0146484375,0.08496094,0.9433594,0.25,0.25,-0.03125,0.0,0.0,0.0
1696292025143,-0.015625,0.0859375,0.9423828,-0.65625,-0.1875,0.09375,0.0,0.0,0.0
1696292025170,-0.015625,0.08300781,0.9511719,0.0,-0.1875,0.09375,0.0,0.0,0.0
1696292025243,-0.03125,0.0859375,0.9472656,0.0,0.125,0.09375,0.0,0.0,0.0
1696292025267,-0.017578125,0.07519531,0.9316406,-0.25,-0.1875,-0.21875,-21.625,-37.1875,-169.25
1696292025292,-0.015625,0.08105469,0.94433594,0.5625,0.0625,-0.03125,0.0,0.0,0.0
1696292025351,-0.018554688,0.08203125,0.9404297,-0.125,-0.0625,-0.09375,0.0,0.0,0.0
1696292025378,-0.016601562,0.08203125,0.953125,0.0,0.125,-0.03125,0.0,0.0,0.0
1696292025407,-0.016601562,0.087890625,0.9433594,0.125,0.125,0.09375,0.0,0.0,0.0
1696292025469,-0.01953125,0.08984375,0.9316406,0.0,-0.25,-0.09375,0.0,0.0,0.0
1696292025499,-0.017578125,0.07714844,0.9433594,0.0625,0.3125,0.03125,0.0,0.0,0.0
1696292025530,-0.0126953125,0.08105469,0.9326172,-0.25,0.125,-0.15625,0.0,0.0,0.0
1696292025592,-0.020507812,0.08691406,0.9550781,0.0,-0.0625,-0.09375,0.0,0.0,0.0
1696292025618,-0.022460938,0.08300781,0.94140625,0.25,-0.0625,-0.15625,0.0,0.0,0.0
1696292025650,-0.020507812,0.07714844,0.92578125,0.0625,0.125,0.15625,0.0,0.0,0.0
1696292025708,-0.018554688,0.0859375,0.9423828,-0.4375,-0.4375,-0.03125,0.0,0.0,0.0
1696292025741,-0.026367188,0.07910156,0.9404297,0.0625,0.375,0.03125,0.0,0.0,0.0
1696292025769,-0.0078125,0.09277344,0.9394531,0.3125,0.5625,-0.28125,-21.75,-36.4375,-169.375
1696292025829,-0.009765625,0.083984375,0.93066406,-0.5625,-0.375,0.15625,0.0,0.0,0.0
1696292025859,-0.022460938,0.078125,0.93847656,-0.3125,-0.1875,0.15625,0.0,0.0,0.0
1696292025888,-0.024414062,0.078125,0.94140625,-0.0625,-0.0625,-0.09375,0.0,0.0,0.0
1696292025951,-0.02734375,0.07714844,0.94628906,-0.5625,-0.3125,-0.03125,0.0,0.0,0.0
1696292025983,-0.018554688,0.09082031,0.9277344,0.375,-0.3125,-0.03125,0.0,0.0,0.0
1696292026009,-0.032226562,0.08203125,0.9482422,-0.25,0.0625,0.09375,0.0,0.0,0.0
1696292026074,-0.0126953125,0.080078125,0.9326172,-0.1875,-0.25,-0.21875,0.0,0.0,0.0
1696292026098,-0.024414062,0.08886719,0.9433594,-0.125,-0.375,0.21875,0.0,0.0,0.0
1696292026131,-0.017578125,0.08496094,0.9355469,-0.4375,-0.65625,-0.09375,0.0,0.0,0.0
1696292026188,-0.0146484375,0.08300781,0.93652344,0.25,-0.25,0.15625,0.0,0.0,0.0
1696292026223,-0.021484375,0.09082031,0.9394531,-0.0625,0.0625,-0.09375,0.0,0.0,0.0
1696292026249,-0.017578125,0.087890625,0.9482422,-0.625,-0.4375,-0.09375,-23.375,-35.8125,-170.625
1696292026309,-0.015625,0.08496094,0.94628906,-0.0625,-0.375,-0.03125,0.0,0.0,0.0
1696292026339,-0.015625,0.07910156,0.93847656,0.125,-0.375,0.09375,0.0,0.0,0.0
1696292026368,-0.013671875,0.07910156,0.9482422,-0.0625,-0.25,0.03125,0.0,0.0,0.0
1696292026430,-0.025390625,0.0859375,0.94140625,-0.4375,-0.4375,0.03125,0.0,0.0,0.0
1696292026492,-0.017578125,0.08105469,0.9560547,-0.0625,0.1875,-0.15625,0.0,0.0,0.0
1696292026496,-0.0146484375,0.09277344,0.94140625,0.3125,0.0,-0.21875,0.0,0.0,0.0
1696292026559,-0.017578125,0.08203125,0.9580078,-0.5625,-0.375,0.09375,0.0,0.0,0.0
1696292026579,-0.016601562,0.072265625,0.9277344,-0.3125,-0.65625,0.03125,0.0,0.0,0.0
1696292026607,-0.025390625,0.08105469,0.9433594,0.125,0.0,0.15625,0.0,0.0,0.0
1696292026668,-0.015625,0.076171875,0.9394531,-0.375,-0.25,-0.21875,0.0,0.0,0.0
1696292026703,-0.021484375,0.08886719,0.9355469,0.3125,-0.375,0.03125,0.0,0.0,0.0
1696292026727,-0.0146484375,0.076171875,0.9482422,0.0,-0.1875,0.09375,0.0,0.0,0.0
1696292026794,-0.021484375,0.076171875,0.94921875,-0.0625,-0.25,0.03125,-20.5625,-36.875,-168.5
1696292026819,-0.0146484375,0.08984375,0.91503906,-0.25,-0.125,-0.15625,0.0,0.0,0.0
1696292026850,-0.016601562,0.08984375,0.93359375,0.0,-0.5,0.09375,0.0,0.0,0.0
1696292026912,-0.0146484375,0.0859375,0.92089844,-0.0625,-0.125,0.09375,0.0,0.0,0.0
1696292026939,-0.018554688,0.083984375,0.9501953,-0.3125,-0.1875,-0.09375,0.0,0.0,0.0
1696292026971,-0.0146484375,0.083984375,0.9404297,-0.125,-0.1875,-0.09375,0.0,0.0,0.0
1696292027032,-0.0126953125,0.091796875,0.93066406,-0.0625,-0.375,-0.15625,0.0,0.0,0.0
1696292027059,-0.0146484375,0.087890625,0.953125,0.3125,0.0,0.09375,0.0,0.0,0.0
1696292027090,-0.015625,0.083984375,0.93652344,-0.0625,-0.125,-0.09375,0.0,0.0,0.0
1696292027149,-0.020507812,0.07324219,0.9423828,-0.5,-0.375,-0.03125,0.0,0.0,0.0
1696292027184,-0.0146484375,0.07519531,0.9316406,0.125,0.5,-0.15625,0.0,0.0,0.0
1696292027208,-0.013671875,0.076171875,0.9550781,0.1875,0.0625,-0.09375,0.0,0.0,0.0
1696292027272,-0.0126953125,0.08105469,0.9433594,-0.4375,-0.3125,-0.03125,-21.75,-35.6875,-170.4375
1696292027305,-0.017578125,0.08984375,0.93066406,0.25,-0.1875,0.21875,0.0,0.0,0.0
1696292027329,-0.009765625,0.08105469,0.9423828,-0.1875,-0.125,0.03125,0.0,0.0,0.0
1696292027388,-0.01171875,0.08886719,0.9345703,-0.25,-0.4375,-0.03125,0.0,0.0,0.0
1696292027419,-0.020507812,0.08496094,0.9345703,0.5,0.0625,0.09375,0.0,0.0,0.0
1696292027448,-0.015625,0.076171875,0.93652344,-0.0625,-0.0625,-0.15625,0.0,0.0,0.0
1696292027509,-0.0126953125,0.07421875,0.93359375,0.0,0.0,-0.09375,0.0,0.0,0.0
1696292027539,-0.016601562,0.08203125,0.94628906,0.0,-0.1875,-0.03125,0.0,0.0,0.0
1696292027569,-0.00390625,0.08496094,0.9453125,0.3125,-0.0625,0.15625,0.0,0.0,0.0
1696292027631,-0.017578125,0.080078125,0.9404297,0.0,0.25,-0.03125,0.0,0.0,0.0
1696292027668,-0.016601562,0.08886719,0.92578125,-0.25,0.1875,-0.09375,0.0,0.0,0.0
1696292027687,-0.0078125,0.08203125,0.9345703,0.0625,-0.1875,-0.03125,0.0,0.0,0.0
1696292027748,-0.0107421875,0.08886719,0.9472656,0.0625,0.0625,0.03125,0.0,0.0,0.0
1696292027809,-0.013671875,0.08496094,0.953125,0.4375,0.375,0.03125,-21.4375,-36.6875,-169.6875
1696292027811,-0.024414062,0.07910156,0.9511719,0.875,0.5,0.34375,0.0,0.0,0.0
1696292027899,-0.0234375,0.08105469,0.9482422,0.125,-0.71875,0.34375,0.0,0.0,0.0
1696292027901,-0.020507812,0.08984375,0.9423828,0.0625,0.25,0.15625,0.0,0.0,0.0
1696292027930,-0.026367188,0.099609375,0.9375,-0.71875,0.65625,0.03125,0.0,0.0,0.0
1696292027990,-0.01171875,0.09667969,0.9375,-0.3125,-1.34375,-0.34375,0.0,0.0,0.0
1696292028021,0.001953125,0.07910156,0.91503906,1.15625,-1.15625,0.65625,0.0,0.0,0.0
1696292028049,-0.022460938,0.072265625,0.9423828,0.625,2.0,0.34375,0.0,0.0,0.0
1696292028080,-0.016601562,0.08105469,0.9472656,-1.8125,-0.125,-0.40625,0.0,0.0,0.0
1696292028142,-0.013671875,0.08300781,0.94921875,0.5,0.125,-0.09375,0.0,0.0,0.0
1696292028169,-0.01171875,0.08203125,0.94433594,2.03125,0.3125,0.15625,0.0,0.0,0.0
1696292028203,-0.0048828125,0.08496094,0.94628906,1.34375,0.5,-0.03125,0.0,0.0,0.0
1696292028262,-0.0078125,0.08496094,0.9404297,-0.65625,0.4375,0.21875,-20.6875,-36.6875,-170.4375
1696292028323,-0.018554688,0.08886719,0.93652344,-0.3125,-0.0625,0.15625,0.0,0.0,0.0
1696292028325,-0.021484375,0.09082031,0.94628906,1.15625,0.25,0.15625,0.0,0.0,0.0
1696292028380,-0.01953125,0.078125,0.93847656,0.75,0.625,-0.09375,0.0,0.0,0.0
1696292028409,-0.016601562,0.07910156,0.9472656,-0.25,0.625,-0.28125,0.0,0.0,0.0
1696292028444,-0.015625,0.08300781,0.92871094,0.0625,0.0625,-0.09375,0.0,0.0,0.0
1696292028502,-0.0078125,0.095703125,0.9375,0.1875,0.25,0.15625,0.0,0.0,0.0
1696292028528,-0.0107421875,0.09082031,0.94433594,-0.125,0.5625,-0.09375,0.0,0.0,0.0
1696292028559,-0.021484375,0.08886719,0.9345703,0.375,0.5,0.09375,0.0,0.0,0.0
1696292028632,-0.01953125,0.078125,0.9375,0.0625,0.84375,-0.4375,0.0,0.0,0.0
1696292028653,-0.016601562,0.08886719,0.9580078,-0.25,0.0,0.03125,0.0,0.0,0.0
1696292028679,-0.0234375,0.08496094,0.94140625,0.0625,0.25,0.34375,0.0,0.0,0.0
1696292028774,-0.0126953125,0.08105469,0.95214844,0.0625,0.625,-0.09375,0.0,0.0,0.0
1696292028782,-0.033203125,0.08203125,0.94921875,-0.375,0.5,0.15625,-20.375,-34.9375,-169.6875
1696292028803,-0.013671875,0.08300781,0.93359375,0.4375,0.125,-0.34375,0.0,0.0,0.0
1696292028862,-0.021484375,0.08496094,0.93359375,0.6875,0.3125,0.34375,0.0,0.0,0.0
1696292028888,-0.020507812,0.083984375,0.9296875,0.375,0.4375,-0.09375,0.0,0.0,0.0
1696292028922,-0.015625,0.08886719,0.9501953,0.125,0.625,-0.09375,0.0,0.0,0.0
1696292028979,-0.021484375,0.0859375,0.93652344,0.0625,0.25,-0.09375,0.0,0.0,0.0
1696292029007,-0.022460938,0.0859375,0.94140625,0.1875,-0.125,-0.03125,0.0,0.0,0.0
1696292029044,-0.022460938,0.09082031,0.92285156,0.3125,0.625,0.09375,0.0,0.0,0.0
1696292029100,-0.0234375,0.0859375,0.93847656,0.0625,0.5,-0.28125,0.0,0.0,0.0
1696292029138,-0.022460938,0.083984375,0.93652344,0.3125,0.4375,0.09375,0.0,0.0,0.0
1696292029159,-0.013671875,0.09375,0.9316406,0.3125,0.375,-0.03125,0.0,0.0,0.0
1696292029223,-0.017578125,0.09082031,0.93652344,0.0625,0.375,0.09375,0.0,0.0,0.0
1696292029248,-0.034179688,0.083984375,0.9482422,-0.0625,0.3125,0.15625,-21.625,-35.0625,-169.875
1696292029281,-0.015625,0.07910156,0.93847656,0.25,0.90625,-0.4375,0.0,0.0,0.0
1696292029339,-0.022460938,0.08105469,0.95214844,0.6875,0.71875,-0.03125,0.0,0.0,0.0
1696292029368,-0.018554688,0.083984375,0.94628906,-0.53125,0.1875,-0.09375,0.0,0.0,0.0
1696292029401,-0.025390625,0.08300781,0.92871094,0.125,0.3125,0.03125,0.0,0.0,0.0
1696292029461,-0.026367188,0.083984375,0.9433594,0.1875,0.78125,-0.21875,0.0,0.0,0.0
1696292029497,-0.021484375,0.08691406,0.9560547,-0.4375,0.375,-0.34375,0.0,0.0,0.0
1696292029519,-0.0146484375,0.08300781,0.9267578,0.3125,0.84375,-0.03125,0.0,0.0,0.0
1696292029582,-0.03125,0.083984375,0.93847656,0.5,0.84375,-0.4375,0.0,0.0,0.0
1696292029610,-0.021484375,0.09472656,0.95214844,0.125,0.625,-0.03125,0.0,0.0,0.0
1696292029641,-0.02734375,0.08496094,0.9316406,0.0625,0.65625,-0.21875,0.0,0.0,0.0
1696292029698,-0.01953125,0.08886719,0.93652344,0.0,0.125,-0.09375,0.0,0.0,0.0
1696292029736,-0.029296875,0.08984375,0.93066406,0.1875,0.25,0.09375,0.0,0.0,0.0
1696292029760,-0.032226562,0.08886719,0.94628906,-0.4375,0.4375,-0.28125,-20.875,-35.0625,-168.8125
1696292029823,-0.021484375,0.095703125,0.94433594,-0.4375,-0.125,-0.28125,0.0,0.0,0.0
1696292029851,-0.022460938,0.08984375,0.95214844,0.375,-0.3125,0.09375,0.0,0.0,0.0
1696292029879,-0.024414062,0.08691406,0.93359375,-0.46875,-0.25,-0.28125,0.0,0.0,0.0
1696292029942,-0.037109375,0.08691406,0.9375,-0.78125,-0.5625,0.15625,0.0,0.0,0.0
1696292029974,-0.0234375,0.08886719,0.9433594,-0.375,0.3125,-0.40625,0.0,0.0,0.0
1696292029999,-0.025390625,0.08203125,0.953125,-0.46875,-0.5,-0.21875,0.0,0.0,0.0
1696292030059,-0.01953125,0.087890625,0.93652344,-0.46875,-0.90625,0.09375,0.0,0.0,0.0
1696292030089,-0.017578125,0.08691406,0.9423828,-0.25,-0.5625,0.21875,0.0,0.0,0.0
1696292030119,-0.01171875,0.08203125,0.94433594,-0.1875,-0.0625,0.09375,0.0,0.0,0.0
1696292030181,-0.017578125,0.09082031,0.9658203,-0.71875,-0.71875,0.03125,0.0,0.0,0.0
1696292030207,-0.02734375,0.078125,0.94628906,0.0,-0.625,0.09375,0.0,0.0,0.0
1696292030239,-0.018554688,0.078125,0.95410156,0.1875,-0.1875,-0.09375,-22.0625,-33.6875,-170.875
1696292030306,-0.0234375,0.08886719,0.9423828,0.3125,-0.0625,-0.09375,0.0,0.0,0.0
1696292030329,-0.028320312,0.08691406,0.94433594,-0.53125,-0.3125,-0.03125,0.0,0.0,0.0
1696292030364,-0.017578125,0.08886719,0.9355469,-0.25,-0.5,0.09375,0.0,0.0,0.0
1696292030422,-0.022460938,0.08300781,0.9316406,0.125,-0.3125,0.15625,0.0,0.0,0.0
1696292030448,-0.013671875,0.080078125,0.9423828,0.0,-0.25,-0.03125,0.0,0.0,0.0
1696292030479,-0.022460938,0.08496094,0.94628906,-0.125,0.0,-0.09375,0.0,0.0,0.0
1696292030538,-0.017578125,0.09375,0.93652344,-0.125,-0.125,-0.15625,0.0,0.0,0.0
1696292030568,-0.025390625,0.08984375,0.94433594,0.375,0.3125,-0.09375,0.0,0.0,0.0
1696292030598,-0.022460938,0.07910156,0.9316406,0.125,0.0,0.09375,0.0,0.0,0.0
1696292030658,-0.017578125,0.08203125,0.94140625,-0.125,0.375,-0.09375,0.0,0.0,0.0
1696292030690,-0.016601562,0.08496094,0.9472656,0.3125,0.1875,-0.21875,0.0,0.0,0.0
1696292030721,-0.018554688,0.076171875,0.9345703,-0.25,0.0625,0.15625,0.0,0.0,0.0
1696292030781,-0.022460938,0.08300781,0.93847656,-0.375,-0.375,0.03125,-22.0625,-34.75,-169.875
1696292030811,-0.03515625,0.08300781,0.9580078,0.3125,0.0,0.03125,0.0,0.0,0.0
1696292030839,-0.016601562,0.07519531,0.9296875,-0.3125,0.0625,-0.15625,0.0,0.0,0.0
1696292030901,-0.022460938,0.08984375,0.9355469,0.3125,-0.0625,0.03125,0.0,0.0,0.0
1696292030932,-0.026367188,0.078125,0.9433594,0.5625,0.1875,0.03125,0.0,0.0,0.0
1696292030963,-0.013671875,0.09082031,0.9326172,-0.1875,-0.3125,0.03125,0.0,0.0,0.0
1696292031048,-0.009765625,0.08203125,0.9423828,0.25,0.25,0.03125,0.0,0.0,0.0
1696292031050,-0.015625,0.08691406,0.94140625,0.0,-0.125,0.09375,0.0,0.0,0.0
1696292031083,-0.021484375,0.08496094,0.93847656,0.25,0.3125,0.09375,0.0,0.0,0.0
1696292031140,-0.022460938,0.08984375,0.9375,-0.375,-0.4375,-0.03125,0.0,0.0,0.0
1696292031169,-0.026367188,0.09472656,0.9501953,-0.0625,0.0,0.03125,0.0,0.0,0.0
1696292031197,-0.013671875,0.0859375,0.93847656,0.25,0.1875,-0.09375,0.0,0.0,0.0
1696292031262,-0.0126953125,0.08105469,0.9375,-0.25,0.0,-0.09375,-20.6875,-34.9375,-170.125
1696292031289,-0.024414062,0.08984375,0.9501953,-0.125,-0.125,-0.03125,0.0,0.0,0.0
1696292031322,-0.018554688,0.083984375,0.9238281,0.0,0.125,0.09375,0.0,0.0,0.0
1696292031378,-0.015625,0.08984375,0.94140625,0.125,0.1875,-0.15625,0.0,0.0,0.0
1696292031408,-0.0107421875,0.083984375,0.93652344,-0.125,0.28125,0.03125,0.0,0.0,0.0
1696292031438,-0.01953125,0.091796875,0.9169922,-0.375,-0.0625,-0.03125,0.0,0.0,0.0
1696292031502,-0.015625,0.08984375,0.9345703,0.0,0.0625,0.09375,0.0,0.0,0.0
1696292031529,-0.01953125,0.087890625,0.9355469,0.0,0.09375,-0.03125,0.0,0.0,0.0
1696292031559,-0.01171875,0.07519531,0.9453125,0.3125,-0.1875,-0.03125,0.0,0.0,0.0
1696292031622,-0.025390625,0.08984375,0.9423828,-0.125,-0.0625,0.03125,0.0,0.0,0.0
1696292031650,-0.018554688,0.078125,0.953125,0.0625,0.21875,-0.03125,0.0,0.0,0.0
1696292031681,-0.013671875,0.078125,0.9550781,0.0625,0.40625,-0.03125,0.0,0.0,0.0
1696292031744,-0.0029296875,0.08300781,0.9404297,-0.1875,-0.1875,0.03125,0.0,0.0,0.0
1696292031770,-0.0126953125,0.07128906,0.9433594,0.1875,0.09375,0.09375,-20.5625,-36.875,-169.5625
1696292031800,-0.024414062,0.087890625,0.9296875,-0.125,0.21875,-0.21875,0.0,0.0,0.0
1696292031860,-0.025390625,0.078125,0.9423828,-0.25,0.0,-0.09375,0.0,0.0,0.0
1696292031890,-0.022460938,0.0859375,0.93066406,0.0,0.0,-0.03125,0.0,0.0,0.0
1696292031921,-0.032226562,0.09277344,0.93066406,0.3125,0.15625,0.03125,0.0,0.0,0.0
1696292031983,-0.018554688,0.08300781,0.9267578,-0.125,0.0,-0.03125,0.0,0.0,0.0
1696292032009,-0.02734375,0.08496094,0.93652344,-0.3125,0.0,0.09375,0.0,0.0,0.0
1696292032042,-0.017578125,0.080078125,0.9453125,0.0625,0.28125,-0.09375,0.0,0.0,0.0
1696292032099,-0.016601562,0.08984375,0.93359375,0.25,0.40625,0.03125,0.0,0.0,0.0
1696292032130,-0.0146484375,0.08105469,0.9511719,-0.25,0.09375,0.03125,0.0,0.0,0.0
1696292032161,-0.017578125,0.083984375,0.9453125,0.0,-0.0625,0.09375,0.0,0.0,0.0
1696292032223,-0.013671875,0.08496094,0.9433594,0.0,0.0,0.03125,0.0,0.0,0.0
1696292032249,-0.015625,0.07910156,0.94628906,0.0,0.0625,0.03125,-20.5625,-37.1875,-169.5625
1696292032284,-0.0146484375,0.08886719,0.93847656,0.1875,0.28125,0.03125,0.0,0.0,0.0
1696292032340,-0.0126953125,0.080078125,0.9326172,-0.125,0.15625,-0.28125,0.0,0.0,0.0
1696292032371,-0.0107421875,0.08300781,0.94140625,0.1875,0.40625,0.03125,0.0,0.0,0.0
1696292032400,-0.0234375,0.08300781,0.93359375,-0.125,-0.0625,-0.03125,0.0,0.0,0.0
1696292032464,-0.021484375,0.083984375,0.9345703,0.125,-0.125,0.09375,0.0,0.0,0.0
1696292032492,-0.01953125,0.083984375,0.9316406,0.375,0.46875,-0.09375,0.0,0.0,0.0
1696292032518,-0.018554688,0.08496094,0.93652344,-0.1875,0.53125,-0.03125,0.0,0.0,0.0
1696292032582,-0.009765625,0.087890625,0.9199219,-0.0625,0.0625,-0.15625,0.0,0.0,0.0
1696292032612,-0.0107421875,0.08691406,0.9375,0.4375,0.28125,0.09375,0.0,0.0,0.0
1696292032642,-0.018554688,0.08984375,0.93066406,0.0625,0.28125,0.09375,0.0,0.0,0.0
1696292032702,-0.017578125,0.091796875,0.96191406,-0.0625,0.34375,0.03125,0.0,0.0,0.0
1696292032735,-0.02734375,0.09277344,0.9345703,0.0625,0.34375,-0.03125,0.0,0.0,0.0
1696292032760,-0.024414062,0.08691406,0.95214844,0.4375,0.84375,-0.28125,-22.5,-35.9375,-169.6875
1696292032823,-0.018554688,0.08984375,0.9404297,-0.4375,0.09375,0.15625,0.0,0.0,0.0
1696292032850,-0.0087890625,0.08203125,0.9453125,-0.25,0.09375,0.09375,0.0,0.0,0.0
1696292032880,-0.017578125,0.07910156,0.9423828,0.3125,0.40625,0.28125,0.0,0.0,0.0
1696292032945,-0.015625,0.0859375,0.93847656,-0.4375,0.09375,0.09375,0.0,0.0,0.0
1696292032967,-0.018554688,0.08984375,0.9453125,0.4375,0.15625,0.03125,0.0,0.0,0.0
1696292032999,-0.021484375,0.08105469,0.9345703,0.3125,0.40625,0.09375,0.0,0.0,0.0
1696292033060,-0.0087890625,0.09765625,0.9511719,0.0625,0.21875,-0.15625,0.0,0.0,0.0
1696292033090,-0.020507812,0.091796875,0.93847656,0.0625,0.46875,0.03125,0.0,0.0,0.0
1696292033121,-0.017578125,0.08691406,0.93359375,0.0,0.0625,-0.09375,0.0,0.0,0.0
1696292033181,-0.018554688,0.080078125,0.9375,0.375,0.21875,0.09375,0.0,0.0,0.0
1696292033211,-0.024414062,0.083984375,0.9453125,-0.125,0.40625,0.15625,0.0,0.0,0.0
1696292033239,-0.020507812,0.08496094,0.9345703,0.0,0.34375,-0.15625,-20.25,-36.125,-169.875
1696292033328,-0.013671875,0.087890625,0.93359375,-0.0625,0.09375,-0.03125,0.0,0.0,0.0
1696292033330,-0.020507812,0.08105469,0.94433594,0.375,0.40625,0.03125,0.0,0.0,0.0
1696292033357,-0.033203125,0.08105469,0.9375,0.0,0.21875,0.03125,0.0,0.0,0.0
1696292033423,-0.03125,0.07910156,0.92285156,-0.25,0.0625,0.03125,0.0,0.0,0.0
1696292033448,-0.029296875,0.08300781,0.9394531,0.375,0.71875,-0.21875,0.0,0.0,0.0
1696292033481,-0.022460938,0.091796875,0.93359375,0.25,0.40625,-0.03125,0.0,0.0,0.0
1696292033538,-0.016601562,0.08984375,0.9248047,-0.5,0.09375,0.09375,0.0,0.0,0.0
1696292033569,-0.021484375,0.08691406,0.94140625,-0.125,0.0,0.09375,0.0,0.0,0.0
1696292033601,-0.024414062,0.08300781,0.9580078,0.0625,0.34375,0.03125,0.0,0.0,0.0
1696292033659,-0.01953125,0.087890625,0.9433594,0.0,0.15625,-0.21875,0.0,0.0,0.0
1696292033690,-0.009765625,0.078125,0.9482422,0.375,0.09375,-0.03125,0.0,0.0,0.0
1696292033719,-0.015625,0.08496094,0.921875,0.0625,0.28125,-0.09375,0.0,0.0,0.0
1696292033783,-0.022460938,0.08203125,0.94140625,0.0625,0.28125,-0.15625,-23.5625,-37.4375,-168.625
1696292033807,-0.021484375,0.076171875,0.9355469,-0.1875,0.15625,-0.03125,0.0,0.0,0.0
1696292033840,-0.0126953125,0.07910156,0.9345703,0.25,0.0,0.15625,0.0,0.0,0.0
1696292033900,-0.022460938,0.08105469,0.9423828,-0.0625,0.0625,0.09375,0.0,0.0,0.0
1696292033930,-0.018554688,0.07910156,0.94921875,-0.25,0.34375,-0.21875,0.0,0.0,0.0
1696292033962,-0.020507812,0.08691406,0.93359375,0.0,0.0,0.03125,0.0,0.0,0.0
1696292034049,-0.025390625,0.08300781,0.9433594,0.25,0.21875,-0.03125,0.0,0.0,0.0
1696292034051,-0.0146484375,0.08691406,0.9453125,0.125,0.09375,0.09375,0.0,0.0,0.0
1696292034079,-0.02734375,0.09082031,0.9277344,-0.4375,0.0625,0.03125,0.0,0.0,0.0
1696292034140,-0.03125,0.087890625,0.9423828,-0.1875,0.15625,0.09375,0.0,0.0,0.0
1696292034168,-0.018554688,0.091796875,0.92578125,0.375,0.34375,-0.34375,0.0,0.0,0.0
1696292034206,-0.026367188,0.09277344,0.9345703,-0.3125,-0.125,0.15625,0.0,0.0,0.0
1696292034263,-0.025390625,0.08496094,0.93652344,-0.65625,-0.5,0.09375,-21.625,-35.5,-169.875
1696292034290,-0.0126953125,0.08691406,0.94433594,0.0,0.0625,0.15625,0.0,0.0,0.0
1696292034321,-0.030273438,0.08203125,0.9482422,-0.25,-0.125,0.03125,0.0,0.0,0.0
1696292034381,-0.018554688,0.080078125,0.9277344,0.1875,-0.3125,-0.28125,0.0,0.0,0.0
1696292034412,-0.0234375,0.08105469,0.94921875,0.3125,0.0625,0.15625,0.0,0.0,0.0
1696292034443,-0.017578125,0.08203125,0.9472656,-0.25,0.0625,-0.09375,0.0,0.0,0.0
1696292034499,-0.022460938,0.09277344,0.9453125,-0.125,-0.125,0.03125,0.0,0.0,0.0
1696292034531,-0.021484375,0.087890625,0.9404297,-0.0625,-0.3125,-0.09375,0.0,0.0,0.0
1696292034558,-0.01171875,0.07910156,0.9560547,0.3125,0.0,-0.03125,0.0,0.0,0.0
1696292034621,-0.0146484375,0.08691406,0.9453125,0.0,0.15625,0.03125,0.0,0.0,0.0
1696292034651,-0.017578125,0.08984375,0.953125,-0.5,-0.125,-0.28125,0.0,0.0,0.0
1696292034680,-0.016601562,0.091796875,0.9394531,0.0,-0.125,-0.09375,0.0,0.0,0.0
1696292034742,-0.020507812,0.091796875,0.9423828,0.25,0.0625,0.03125,0.0,0.0,0.0
1696292034773,-0.017578125,0.087890625,0.9433594,-0.25,0.0,-0.03125,-20.25,-36.5625,-169.875
1696292034798,-0.021484375,0.0859375,0.94628906,-0.1875,0.09375,-0.03125,0.0,0.0,0.0
1696292034865,-0.025390625,0.087890625,0.9326172,0.3125,0.46875,-0.03125,0.0,0.0,0.0
1696292034888,-0.01171875,0.08300781,0.94140625,0.125,0.21875,-0.15625,0.0,0.0,0.0
1696292034920,-0.021484375,0.09277344,0.96191406,-0.375,0.0,-0.03125,0.0,0.0,0.0
1696292034981,-0.022460938,0.08886719,0.9316406,-0.0625,-0.0625,-0.03125,0.0,0.0,0.0
1696292035015,-0.017578125,0.08105469,0.9501953,0.0625,0.28125,0.03125,0.0,0.0,0.0
1696292035043,-0.015625,0.080078125,0.94628906,-0.125,0.0625,-0.09375,0.0,0.0,0.0
1696292035100,-0.018554688,0.07910156,0.9501953,0.3125,-0.1875,-0.03125,0.0,0.0,0.0
1696292035129,-0.020507812,0.08300781,0.9433594,0.0,0.0625,0.03125,0.0,0.0,0.0
1696292035160,-0.018554688,0.08203125,0.94140625,0.0625,0.09375,-0.09375,0.0,0.0,0.0
1696292035251,-0.016601562,0.078125,0.9472656,0.0,0.40625,-0.03125,-22.0625,-35.8125,-169.25
1696292035252,-0.030273438,0.08886719,0.94140625,-0.125,-0.1875,-0.03125,0.0,0.0,0.0
1696292035279,-0.01953125,0.09277344,0.9248047,0.3125,0.15625,0.09375,0.0,0.0,0.0
1696292035342,-0.025390625,0.083984375,0.9423828,-0.09375,0.125,-0.09375,0.0,0.0,0.0
1696292035380,-0.016601562,0.080078125,0.9433594,-0.21875,-0.1875,-0.03125,0.0,0.0,0.0
1696292035399,-0.0107421875,0.076171875,0.9453125,0.03125,-0.125,-0.03125,0.0,0.0,0.0
1696292035464,-0.015625,0.08300781,0.93847656,0.34375,0.125,-0.03125,0.0,0.0,0.0
1696292035489,-0.018554688,0.08300781,0.9501953,0.03125,0.0625,0.09375,0.0,0.0,0.0
1696292035522,-0.0234375,0.076171875,0.93359375,-0.15625,-0.0625,-0.03125,0.0,0.0,0.0
1696292035614,-0.036132812,0.07910156,0.95703125,0.34375,0.25,0.09375,0.0,0.0,0.0
1696292035618,-0.0068359375,0.07421875,0.95214844,0.28125,0.5,-0.25,0.0,0.0,0.0
1696292035641,-0.016601562,0.08886719,0.92089844,-0.28125,0.0625,0.03125,0.0,0.0,0.0
1696292035702,-0.0146484375,0.08300781,0.9375,-0.28125,-0.28125,0.09375,0.0,0.0,0.0
1696292035729,-0.025390625,0.07421875,0.94628906,0.34375,0.3125,0.28125,0.0,0.0,0.0
1696292035760,-0.020507812,0.080078125,0.9326172,-0.09375,0.125,-0.03125,-20.5625,-36.5625,-170.875
1696292035821,-0.021484375,0.080078125,0.94140625,0.15625,-0.125,-0.09375,0.0,0.0,0.0
1696292035848,-0.0087890625,0.07714844,0.94628906,0.03125,0.125,-0.03125,0.0,0.0,0.0
1696292035882,-0.021484375,0.087890625,0.9277344,0.15625,0.1875,-0.03125,0.0,0.0,0.0
1696292035943,-0.025390625,0.08300781,0.94433594,0.09375,0.25,-0.09375,0.0,0.0,0.0
1696292035969,-0.0126953125,0.08886719,0.9423828,0.03125,-0.21875,0.03125,0.0,0.0,0.0
1696292036002,-0.01953125,0.08105469,0.9472656,0.34375,0.0625,0.03125,0.0,0.0,0.0
1696292036061,-0.022460938,0.080078125,0.94140625,-0.03125,0.375,-0.125,0.0,0.0,0.0
1696292036090,-0.016601562,0.07910156,0.93847656,-0.21875,-0.0625,0.03125,0.0,0.0,0.0
1696292036124,-0.026367188,0.09472656,0.93652344,0.03125,-0.1875,-0.03125,0.0,0.0,0.0
1696292036179,-0.0126953125,0.09765625,0.93652344,0.40625,0.125,0.03125,0.0,0.0,0.0
1696292036209,-0.017578125,0.083984375,0.93847656,0.21875,0.25,0.03125,0.0,0.0,0.0
1696292036238,-0.0126953125,0.08203125,0.9199219,-0.28125,-0.0625,0.03125,-22.0625,-35.5,-169.875
1696292036304,-0.03125,0.08496094,0.9433594,0.03125,0.125,0.09375,0.0,0.0,0.0
1696292036328,-0.0234375,0.08691406,0.9453125,0.21875,0.5625,-0.09375,0.0,0.0,0.0
1696292036358,-0.0087890625,0.08105469,0.9375,0.21875,0.3125,-0.03125,0.0,0.0,0.0
1696292036421,-0.01953125,0.08105469,0.9394531,-0.46875,0.0,0.15625,0.0,0.0,0.0
1696292036449,-0.020507812,0.08203125,0.94140625,0.09375,0.1875,0.15625,0.0,0.0,0.0
1696292036478,-0.021484375,0.080078125,0.94140625,0.09375,0.3125,0.03125,0.0,0.0,0.0
1696292036543,-0.021484375,0.08105469,0.9277344,-0.15625,-0.0625,-0.125,0.0,0.0,0.0
1696292036569,-0.018554688,0.08886719,0.94628906,0.40625,-0.0625,-0.03125,0.0,0.0,0.0
1696292036599,-0.01171875,0.083984375,0.9482422,-0.03125,0.125,0.09375,0.0,0.0,0.0
1696292036661,-0.013671875,0.091796875,0.9423828,0.15625,0.375,-0.03125,0.0,0.0,0.0
1696292036689,-0.013671875,0.08496094,0.9423828,0.09375,0.1875,-0.03125,0.0,0.0,0.0
1696292036722,-0.0078125,0.07519531,0.9472656,0.28125,-0.125,-0.03125,0.0,0.0,0.0
1696292036783,-0.021484375,0.08496094,0.9453125,0.09375,0.3125,0.15625,-21.75,-35.1875,-169.375
1696292036808,-0.0107421875,0.08105469,0.9267578,-0.09375,0.375,-0.125,0.0,0.0,0.0
1696292036839,-0.022460938,0.08691406,0.94628906,-0.03125,0.0,0.03125,0.0,0.0,0.0
1696292036901,-0.026367188,0.08496094,0.9482422,0.21875,0.3125,-0.09375,0.0,0.0,0.0
1696292036938,-0.013671875,0.07910156,0.93652344,0.46875,0.3125,0.09375,0.0,0.0,0.0
1696292036962,-0.020507812,0.08691406,0.9453125,-0.34375,0.125,-0.03125,0.0,0.0,0.0
1696292037021,-0.021484375,0.08203125,0.9501953,-0.15625,-0.0625,0.15625,0.0,0.0,0.0
1696292037047,-0.024414062,0.08886719,0.9453125,0.46875,0.8125,-0.09375,0.0,0.0,0.0
1696292037080,-0.01171875,0.09082031,0.9404297,0.40625,0.5,-0.09375,0.0,0.0,0.0
1696292037110,-0.028320312,0.08984375,0.9404297,-0.65625,0.0625,0.09375,0.0,0.0,0.0
1696292037173,-0.018554688,0.08496094,0.93359375,-0.03125,0.0,0.15625,0.0,0.0,0.0
1696292037198,-0.021484375,0.08496094,0.9482422,0.21875,0.5,0.21875,0.0,0.0,0.0
1696292037228,-0.018554688,0.08691406,0.9433594,0.03125,0.1875,-0.09375,0.0,0.0,0.0
1696292037292,-0.016601562,0.09082031,0.9433594,0.34375,0.0625,-0.03125,-22.625,-35.8125,-169.875
1696292037318,-0.03125,0.08496094,0.9345703,0.03125,0.3125,0.03125,0.0,0.0,0.0
1696292037347,-0.018554688,0.08300781,0.9482422,0.21875,0.5,-0.09375,0.0,0.0,0.0
1696292037410,-0.025390625,0.07910156,0.9423828,0.03125,0.25,-0.09375,0.0,0.0,0.0
1696292037438,-0.020507812,0.083984375,0.9453125,0.09375,0.125,0.03125,0.0,0.0,0.0
1696292037469,-0.024414062,0.08105469,0.93847656,0.09375,0.25,0.15625,0.0,0.0,0.0
1696292037528,-0.02734375,0.08105469,0.9433594,-0.03125,0.4375,-0.125,0.0,0.0,0.0
1696292037565,-0.020507812,0.09277344,0.9482422,0.09375,0.3125,-0.03125,0.0,0.0,0.0
1696292037587,-0.016601562,0.091796875,0.9375,0.28125,0.1875,-0.09375,0.0,0.0,0.0
1696292037650,-0.0146484375,0.08300781,0.9248047,0.40625,0.1875,0.03125,0.0,0.0,0.0
1696292037679,-0.025390625,0.07714844,0.93847656,-0.09375,0.1875,0.09375,0.0,0.0,0.0
1696292037708,-0.024414062,0.08203125,0.9277344,-0.28125,0.0,-0.03125,0.0,0.0,0.0
1696292037768,-0.026367188,0.08691406,0.93847656,0.46875,0.6875,-0.25,-21.625,-35.5,-170.3125
1696292037798,-0.009765625,0.087890625,0.9423828,0.15625,0.1875,-0.03125,0.0,0.0,0.0
1696292037827,-0.020507812,0.095703125,0.93359375,-0.53125,-0.125,-0.03125,0.0,0.0,0.0
1696292037889,-0.020507812,0.08984375,0.9375,0.03125,-0.125,0.03125,0.0,0.0,0.0
1696292037921,-0.026367188,0.080078125,0.93847656,0.09375,0.25,0.03125,0.0,0.0,0.0
1696292037950,-0.0234375,0.08203125,0.9345703,-0.34375,-0.34375,-0.09375,0.0,0.0,0.0
1696292038011,-0.018554688,0.087890625,0.9404297,0.375,-0.28125,0.03125,0.0,0.0,0.0
1696292038046,-0.01171875,0.076171875,0.9482422,-0.15625,-0.15625,0.09375,0.0,0.0,0.0
1696292038102,-0.024414062,0.09277344,0.94140625,-0.09375,-0.09375,0.03125,0.0,0.0,0.0
1696292038127,-0.018554688,0.09082031,0.93847656,-0.15625,-0.28125,-0.03125,0.0,0.0,0.0
1696292038160,-0.021484375,0.08203125,0.9423828,0.0,-0.46875,0.09375,0.0,0.0,0.0
1696292038192,-0.016601562,0.08496094,0.9472656,0.125,-0.03125,0.15625,0.0,0.0,0.0
1696292038249,-0.020507812,0.087890625,0.93359375,-0.46875,-0.15625,-0.21875,0.0,0.0,0.0
1696292038278,-0.013671875,0.08496094,0.94433594,-0.03125,-0.53125,-0.03125,-21.625,-35.8125,-168.8125
1696292038308,-0.017578125,0.0859375,0.93847656,-0.09375,-0.34375,-0.03125,0.0,0.0,0.0
1696292038372,-0.015625,0.087890625,0.9248047,-0.03125,-0.21875,0.03125,0.0,0.0,0.0
1696292038401,-0.017578125,0.083984375,0.94628906,0.0,-0.15625,0.09375,0.0,0.0,0.0
1696292038430,-0.026367188,0.08203125,0.93847656,-0.53125,-0.46875,0.15625,0.0,0.0,0.0
1696292038491,-0.0107421875,0.08203125,0.9433594,0.375,0.3125,-0.15625,0.0,0.0,0.0
1696292038519,-0.015625,0.08984375,0.9453125,0.0,-0.03125,0.09375,0.0,0.0,0.0
1696292038550,-0.020507812,0.08105469,0.9375,-0.90625,-0.34375,0.03125,0.0,0.0,0.0
1696292038613,-0.015625,0.08691406,0.94628906,0.0625,-0.28125,0.09375,0.0,0.0,0.0
1696292038638,-0.024414062,0.08105469,0.94628906,-0.09375,0.03125,-0.03125,0.0,0.0,0.0
1696292038668,-0.021484375,0.06738281,0.9453125,-0.46875,-0.71875,0.03125,0.0,0.0,0.0
1696292038731,-0.0234375,0.08300781,0.94140625,0.375,-0.34375,0.03125,0.0,0.0,0.0
1696292038758,-0.015625,0.09472656,0.9433594,-0.09375,-0.15625,-0.09375,-20.375,-36.6875,-170.4375
1696292038787,-0.024414062,0.09082031,0.95214844,-0.03125,-0.15625,0.03125,0.0,0.0,0.0
1696292038849,-0.016601562,0.0859375,0.9404297,-0.15625,-0.09375,-0.03125,0.0,0.0,0.0
1696292038879,-0.016601562,0.08496094,0.953125,0.0,-0.46875,0.03125,0.0,0.0,0.0
1696292038910,-0.022460938,0.09082031,0.9345703,0.0625,-0.28125,0.15625,0.0,0.0,0.0
1696292038967,-0.015625,0.07714844,0.94628906,0.0,-0.03125,-0.21875,0.0,0.0,0.0
1696292039000,-0.016601562,0.07910156,0.94140625,-0.15625,-0.28125,0.03125,0.0,0.0,0.0
1696292039029,-0.022460938,0.07324219,0.9472656,-0.03125,-0.40625,-0.15625,0.0,0.0,0.0
1696292039091,-0.009765625,0.0859375,0.9511719,0.125,-0.34375,-0.03125,0.0,0.0,0.0
1696292039123,-0.017578125,0.083984375,0.9511719,0.125,-0.03125,0.09375,0.0,0.0,0.0
1696292039150,-0.024414062,0.083984375,0.94140625,-0.40625,-0.46875,0.03125,0.0,0.0,0.0
1696292039211,-0.021484375,0.08691406,0.9423828,0.125,-0.03125,-0.03125,0.0,0.0,0.0
1696292039240,-0.0234375,0.08691406,0.93359375,0.25,0.03125,-0.15625,0.0,0.0,0.0
1696292039268,-0.0126953125,0.09082031,0.9316406,-0.59375,-0.40625,0.03125,-20.375,-35.6875,-170.4375
1696292039330,-0.0087890625,0.08496094,0.9267578,-0.15625,-0.40625,0.09375,0.0,0.0,0.0
1696292039358,-0.018554688,0.07910156,0.93359375,-0.03125,-0.09375,0.03125,0.0,0.0,0.0
1696292039388,-0.017578125,0.078125,0.95703125,-0.34375,-0.34375,-0.15625,0.0,0.0,0.0
1696292039451,-0.013671875,0.087890625,0.9355469,0.3125,-0.34375,-0.09375,0.0,0.0,0.0
1696292039477,-0.017578125,0.09082031,0.9326172,-0.03125,-0.09375,0.09375,0.0,0.0,0.0
1696292039510,-0.017578125,0.08886719,0.9482422,0.0625,0.09375,-0.09375,0.0,0.0,0.0
1696292039572,-0.017578125,0.08496094,0.94628906,-0.09375,-0.28125,-0.03125,0.0,0.0,0.0
1696292039602,-0.020507812,0.087890625,0.9326172,0.0,-0.46875,-0.09375,0.0,0.0,0.0
1696292039628,-0.0146484375,0.076171875,0.9453125,0.1875,-0.15625,0.09375,0.0,0.0,0.0
1696292039694,-0.024414062,0.087890625,0.9394531,-0.09375,-0.03125,-0.09375,0.0,0.0,0.0
1696292039720,-0.016601562,0.08691406,0.94433594,-0.15625,-0.21875,-0.03125,0.0,0.0,0.0
1696292039748,-0.0146484375,0.0859375,0.9453125,-0.03125,-0.34375,0.03125,-21.125,-36.6875,-169.6875
1696292039809,-0.018554688,0.083984375,0.94140625,0.3125,0.09375,0.03125,0.0,0.0,0.0
1696292039841,-0.0146484375,0.08691406,0.94921875,0.0,-0.03125,0.03125,0.0,0.0,0.0
1696292039869,-0.024414062,0.08886719,0.9580078,-0.46875,-0.53125,-0.09375,0.0,0.0,0.0
1696292039931,-0.021484375,0.08203125,0.9375,0.1875,0.09375,-0.03125,0.0,0.0,0.0
1696292039969,-0.020507812,0.09277344,0.9355469,0.3125,0.1875,-0.21875,0.0,0.0,0.0
1696292039990,-0.0146484375,0.09082031,0.93652344,-0.53125,-0.28125,-0.03125,0.0,0.0,0.0
1696292040049,-0.018554688,0.08496094,0.9472656,-0.28125,-0.46875,0.09375,0.0,0.0,0.0
1696292040080,-0.01953125,0.08886719,0.94140625,0.0,0.03125,0.09375,0.0,0.0,0.0
1696292040108,-0.0146484375,0.07714844,0.9375,-0.15625,-0.28125,-0.03125,0.0,0.0,0.0
1696292040172,-0.016601562,0.0859375,0.9394531,0.375,-0.21875,-0.03125,0.0,0.0,0.0
1696292040199,-0.0146484375,0.07910156,0.9482422,0.0,0.09375,0.03125,0.0,0.0,0.0
1696292040228,-0.0146484375,0.08691406,0.9453125,-0.15625,-0.15625,-0.03125,0.0,0.0,0.0
1696292040295,-0.020507812,0.087890625,0.94140625,-0.09375,-0.15625,0.03125,-20.6875,-37.0,-170.125
1696292040324,-0.009765625,0.08886719,0.9472656,0.0,-0.46875,0.03125,0.0,0.0,0.0
1696292040349,-0.0107421875,0.08886719,0.9355469,0.125,-0.28125,0.09375,0.0,0.0,0.0
1696292040412,-0.016601562,0.083984375,0.9277344,-0.34375,0.03125,-0.09375,0.0,0.0,0.0
1696292040439,-0.020507812,0.08203125,0.9355469,-0.15625,-0.28125,-0.15625,0.0,0.0,0.0
1696292040468,-0.013671875,0.080078125,0.94921875,0.125,-0.21875,0.03125,0.0,0.0,0.0
1696292040529,-0.016601562,0.0859375,0.93847656,0.25,-0.03125,-0.03125,0.0,0.0,0.0
1696292040559,-0.015625,0.080078125,0.9472656,-0.15625,-0.15625,0.09375,0.0,0.0,0.0
1696292040590,-0.022460938,0.08105469,0.94140625,-0.28125,-0.34375,0.09375,0.0,0.0,0.0
1696292040653,-0.025390625,0.08496094,0.9482422,0.0625,-0.03125,0.09375,0.0,0.0,0.0
1696292040681,-0.015625,0.08984375,0.94433594,0.375,0.375,-0.21875,0.0,0.0,0.0
1696292040713,-0.017578125,0.08203125,0.9482422,-0.28125,-0.09375,-0.03125,0.0,0.0,0.0
1696292040768,-0.021484375,0.08496094,0.9394531,-0.46875,-0.46875,0.09375,-22.1875,-37.4375,-168.625
1696292040801,-0.022460938,0.09277344,0.953125,0.125,-0.03125,0.03125,0.0,0.0,0.0
1696292040829,-0.020507812,0.080078125,0.94140625,-0.28125,-0.28125,0.03125,0.0,0.0,0.0
1696292040890,-0.0078125,0.08984375,0.9501953,0.125,-0.34375,-0.15625,0.0,0.0,0.0
1696292040920,-0.018554688,0.07910156,0.9501953,0.0,0.15625,0.03125,0.0,0.0,0.0
1696292040948,-0.01171875,0.083984375,0.9375,-0.21875,-0.21875,-0.15625,0.0,0.0,0.0
1696292041017,-0.01171875,0.083984375,0.95703125,0.0,0.03125,0.03125,0.0,0.0,0.0
1696292041044,-0.0146484375,0.08691406,0.9433594,0.1875,0.03125,0.09375,0.0,0.0,0.0
1696292041067,-0.020507812,0.091796875,0.94140625,-0.03125,-0.46875,0.15625,0.0,0.0,0.0
1696292041132,-0.015625,0.08203125,0.94140625,-0.21875,0.09375,-0.03125,0.0,0.0,0.0
1696292041157,-0.01171875,0.076171875,0.9394531,0.1875,0.25,-0.09375,0.0,0.0,0.0
1696292041188,-0.013671875,0.087890625,0.9375,-0.09375,-0.21875,-0.09375,0.0,0.0,0.0
1696292041251,-0.01953125,0.08300781,0.94433594,0.1875,-0.03125,0.09375,0.0,0.0,0.0
1696292041282,-0.024414062,0.08496094,0.94140625,0.1875,0.25,0.09375,-21.75,-35.6875,-169.375
1696292041314,-0.016601562,0.08105469,0.953125,-0.40625,-0.09375,-0.03125,0.0,0.0,0.0
1696292041375,-0.025390625,0.08691406,0.94433594,-0.09375,-0.03125,0.03125,0.0,0.0,0.0
1696292041398,-0.015625,0.08105469,0.9326172,0.4375,0.9375,-0.28125,0.0,0.0,0.0
1696292041429,-0.015625,0.08691406,0.9550781,-0.15625,-0.09375,0.09375,0.0,0.0,0.0
1696292041491,-0.018554688,0.091796875,0.9433594,-0.46875,-0.21875,0.09375,0.0,0.0,0.0
1696292041521,-0.021484375,0.08203125,0.9433594,0.4375,0.25,0.09375,0.0,0.0,0.0
1696292041548,-0.018554688,0.08203125,0.9472656,-0.09375,0.03125,0.09375,0.0,0.0,0.0
1696292041615,-0.018554688,0.087890625,0.9404297,-0.15625,-0.28125,-0.09375,0.0,0.0,0.0
1696292041639,-0.016601562,0.08496094,0.94628906,0.4375,0.375,-0.03125,0.0,0.0,0.0
1696292041673,-0.028320312,0.09082031,0.9511719,-0.09375,-0.21875,-0.09375,0.0,0.0,0.0
1696292041731,-0.028320312,0.09082031,0.9375,0.0,0.15625,-0.03125,0.0,0.0,0.0
1696292041760,-0.009765625,0.087890625,0.94140625,0.0625,0.03125,-0.03125,-22.1875,-36.4375,-169.6875
1696292041788,-0.024414062,0.08300781,0.9472656,0.125,-0.34375,0.03125,0.0,0.0,0.0
1696292041849,-0.017578125,0.07714844,0.94921875,-0.15625,0.03125,0.09375,0.0,0.0,0.0
1696292041887,-0.018554688,0.08105469,0.94921875,0.0,0.15625,-0.09375,0.0,0.0,0.0
1696292041908,-0.0234375,0.0859375,0.94140625,-0.0625,-0.15625,0.09375,0.0,0.0,0.0
1696292041969,-0.01171875,0.08300781,0.93847656,0.125,-0.09375,0.09375,0.0,0.0,0.0
1696292041998,-0.017578125,0.07714844,0.9375,0.1875,-0.03125,0.09375,0.0,0.0,0.0
1696292042029,-0.021484375,0.09082031,0.9511719,-0.46875,-0.34375,0.03125,0.0,0.0,0.0
1696292042088,-0.018554688,0.078125,0.93652344,0.0625,0.3125,-0.03125,0.0,0.0,0.0
1696292042119,-0.0087890625,0.080078125,0.9267578,0.625,0.5,-0.34375,0.0,0.0,0.0
1696292042149,-0.020507812,0.09082031,0.953125,-0.65625,-0.46875,-0.03125,0.0,0.0,0.0
1696292042240,-0.0234375,0.08886719,0.9394531,-0.3125,-0.28125,-0.09375,0.0,0.0,0.0
1696292042242,-0.030273438,0.07714844,0.94628906,0.1875,0.1875,0.25,0.0,0.0,0.0
1696292042270,-0.025390625,0.08105469,0.9375,-0.46875,-0.21875,0.03125,-22.5,-35.1875,-169.375
1696292042328,-0.015625,0.087890625,0.9433594,0.5,-0.21875,-0.28125,0.0,0.0,0.0
1696292042359,-0.021484375,0.08300781,0.95214844,0.125,0.15625,-0.03125,0.0,0.0,0.0
1696292042394,-0.018554688,0.087890625,0.9501953,-0.1875,-0.03125,-0.15625,0.0,0.0,0.0
1696292042448,-0.025390625,0.08203125,0.9501953,-0.125,-0.15625,0.09375,0.0,0.0,0.0
1696292042479,-0.022460938,0.07910156,0.95410156,0.0,-0.15625,0.03125,0.0,0.0,0.0
1696292042508,-0.020507812,0.08105469,0.9404297,0.0625,-0.21875,0.03125,0.0,0.0,0.0
1696292042603,-0.024414062,0.0859375,0.9501953,-0.1875,0.03125,-0.09375,0.0,0.0,0.0
1696292042604,-0.020507812,0.08691406,0.95214844,-0.1875,-0.21875,-0.09375,0.0,0.0,0.0
1696292042627,-0.016601562,0.09082031,0.9296875,-0.0625,-0.40625,-0.03125,0.0,0.0,0.0
1696292042689,-0.0126953125,0.08496094,0.94921875,0.4375,-0.15625,0.09375,0.0,0.0,0.0
1696292042732,-0.017578125,0.08886719,0.94140625,-0.0625,-0.09375,-0.03125,0.0,0.0,0.0
1696292042749,-0.015625,0.08300781,0.94628906,-0.71875,-0.53125,0.03125,-21.4375,-35.9375,-169.125
1696292042810,-0.025390625,0.07519531,0.94140625,0.4375,0.375,-0.21875,0.0,0.0,0.0
1696292042845,-0.016601562,0.08203125,0.93359375,0.0,-0.15625,0.03125,0.0,0.0,0.0
1696292042869,-0.0126953125,0.087890625,0.9423828,-0.78125,-0.53125,0.15625,0.0,0.0,0.0
1696292042927,-0.028320312,0.08496094,0.9375,-0.25,-0.59375,0.15625,0.0,0.0,0.0
1696292042959,-0.022460938,0.08300781,0.9433594,-0.0625,0.09375,-0.09375,0.0,0.0,0.0
1696292042988,-0.0234375,0.08496094,0.9326172,-0.1875,-0.59375,-0.09375,0.0,0.0,0.0
1696292043048,-0.020507812,0.078125,0.9501953,0.125,-0.65625,-0.03125,0.0,0.0,0.0
1696292043081,-0.0234375,0.08496094,0.9433594,-0.0625,-0.28125,0.09375,0.0,0.0,0.0
1696292043108,-0.018554688,0.08300781,0.94433594,0.0625,-0.15625,-0.09375,0.0,0.0,0.0
1696292043172,-0.02734375,0.0859375,0.9404297,-0.3125,-0.21875,-0.03125,0.0,0.0,0.0
1696292043199,-0.020507812,0.09375,0.9355469,-0.1875,-0.59375,0.03125,0.0,0.0,0.0
1696292043234,-0.022460938,0.08691406,0.9423828,0.125,-0.21875,0.15625,0.0,0.0,0.0
1696292043292,-0.020507812,0.08203125,0.95703125,-0.34375,-0.34375,-0.15625,-20.6875,-35.9375,-170.125
1696292043323,-0.0234375,0.07519531,0.9375,-0.3125,-0.15625,-0.09375,0.0,0.0,0.0
1696292043348,-0.020507812,0.08886719,0.9560547,-0.0625,-0.34375,-0.03125,0.0,0.0,0.0
1696292043411,-0.0126953125,0.08105469,0.94140625,-0.0625,-0.21875,0.09375,0.0,0.0,0.0
1696292043438,-0.020507812,0.08300781,0.9433594,-0.0625,-0.28125,0.03125,0.0,0.0,0.0
1696292043470,-0.025390625,0.078125,0.9580078,-0.3125,-0.34375,-0.03125,0.0,0.0,0.0
1696292043530,-0.020507812,0.10058594,0.953125,0.0,0.4375,-0.21875,0.0,0.0,0.0
1696292043560,-0.021484375,0.07519531,0.94140625,-0.0625,-0.21875,0.03125,0.0,0.0,0.0
1696292043589,-0.0126953125,0.087890625,0.9267578,-0.3125,-0.34375,0.09375,0.0,0.0,0.0
1696292043651,-0.022460938,0.078125,0.9453125,0.25,-0.09375,0.15625,0.0,0.0,0.0
1696292043683,-0.026367188,0.08691406,0.9453125,-0.25,-0.09375,-0.03125,0.0,0.0,0.0
1696292043712,-0.016601562,0.08105469,0.9326172,-0.0625,-0.53125,0.03125,0.0,0.0,0.0
1696292043769,-0.013671875,0.08300781,0.9355469,0.375,-0.03125,0.03125,-21.3125,-36.125,-169.25
1696292043808,-0.016601562,0.08203125,0.9355469,-0.125,-0.28125,0.03125,0.0,0.0,0.0
1696292043830,-0.028320312,0.08496094,0.9482422,0.0,-0.21875,0.09375,0.0,0.0,0.0
1696292043889,-0.018554688,0.08105469,0.9296875,-0.0625,-0.15625,-0.09375,0.0,0.0,0.0
1696292043922,-0.017578125,0.08300781,0.94628906,0.1875,-0.40625,0.03125,0.0,0.0,0.0
1696292043948,-0.0146484375,0.078125,0.94921875,0.0,0.03125,-0.03125,0.0,0.0,0.0
1696292044040,-0.017578125,0.080078125,0.94628906,-0.1875,-0.21875,-0.15625,0.0,0.0,0.0
1696292044046,-0.009765625,0.083984375,0.93652344,-0.25,-0.40625,-0.21875,0.0,0.0,0.0
1696292044072,-0.021484375,0.083984375,0.9326172,0.125,-0.15625,0.03125,0.0,0.0,0.0
1696292044132,-0.022460938,0.08496094,0.953125,0.0,-0.15625,0.09375,0.0,0.0,0.0
1696292044159,-0.021484375,0.07910156,0.93652344,-0.34375,-0.34375,0.03125,0.0,0.0,0.0
1696292044188,-0.026367188,0.080078125,0.9423828,-0.0625,-0.03125,-0.03125,0.0,0.0,0.0
1696292044284,-0.0146484375,0.083984375,0.9433594,0.25,0.09375,-0.21875,-21.3125,-36.125,-169.25
1696292044286,-0.021484375,0.08105469,0.93359375,-0.34375,-0.09375,-0.03125,0.0,0.0,0.0
1696292044308,-0.020507812,0.08203125,0.9345703,-0.59375,-0.34375,0.03125,0.0,0.0,0.0
1696292044402,-0.024414062,0.087890625,0.94140625,0.125,0.09375,0.03125,0.0,0.0,0.0
1696292044403,-0.024414062,0.083984375,0.94433594,-0.3125,-0.28125,-0.03125,0.0,0.0,0.0
1696292044427,-0.020507812,0.083984375,0.9472656,0.125,-0.28125,0.03125,0.0,0.0,0.0
1696292044492,-0.0107421875,0.08691406,0.9375,-0.0625,-0.15625,0.09375,0.0,0.0,0.0
1696292044520,-0.013671875,0.083984375,0.9453125,-0.25,-0.15625,-0.09375,0.0,0.0,0.0
1696292044548,-0.0234375,0.08984375,0.93066406,0.0,0.03125,-0.03125,0.0,0.0,0.0
1696292044612,-0.0126953125,0.080078125,0.94921875,-0.0625,-0.46875,-0.03125,0.0,0.0,0.0
1696292044642,-0.021484375,0.08496094,0.9423828,0.125,-0.28125,0.09375,0.0,0.0,0.0
1696292044669,-0.018554688,0.0859375,0.93359375,0.0,0.03125,-0.03125,0.0,0.0,0.0
1696292044733,-0.013671875,0.08496094,0.93847656,-0.25,-0.15625,-0.15625,0.0,0.0,0.0
1696292044762,-0.021484375,0.08105469,0.9355469,-0.0625,-0.34375,-0.03125,-21.75,-36.6875,-169.375
1696292044788,-0.017578125,0.087890625,0.94921875,0.4375,-0.03125,-0.03125,0.0,0.0,0.0
1696292044849,-0.030273438,0.083984375,0.94628906,-0.25,-0.21875,0.09375,0.0,0.0,0.0
1696292044879,-0.020507812,0.095703125,0.9550781,-0.40625,-0.28125,-0.09375,0.0,0.0,0.0
1696292044910,-0.020507812,0.08105469,0.9345703,0.125,0.15625,-0.03125,0.0,0.0,0.0
1696292044970,-0.013671875,0.08886719,0.95703125,0.4375,0.15625,-0.03125,0.0,0.0,0.0
1696292045005,-0.009765625,0.08886719,0.9316406,-0.46875,-0.21875,-0.09375,0.0,0.0,0.0
1696292045027,-0.0146484375,0.080078125,0.95214844,-0.34375,-0.34375,0.15625,0.0,0.0,0.0
1696292045118,-0.025390625,0.07714844,0.9355469,0.125,0.03125,0.09375,0.0,0.0,0.0
1696292045120,-0.024414062,0.080078125,0.94628906,-0.0625,-0.21875,0.03125,0.0,0.0,0.0
1696292045157,-0.020507812,0.078125,0.93359375,0.25,-0.15625,-0.03125,0.0,0.0,0.0
1696292045208,-0.018554688,0.080078125,0.95214844,-0.125,-0.21875,-0.09375,0.0,0.0,0.0
1696292045241,-0.013671875,0.08203125,0.93359375,-0.125,-0.15625,-0.03125,0.0,0.0,0.0
1696292045270,-0.0234375,0.0859375,0.9316406,-0.125,-0.15625,0.03125,-21.3125,-35.5,-169.25
1696292045331,-0.0048828125,0.08496094,0.953125,0.125,-0.65625,0.03125,0.0,0.0,0.0
1696292045360,-0.021484375,0.08496094,0.9501953,0.1875,-0.03125,0.09375,0.0,0.0,0.0
1696292045391,-0.0146484375,0.08496094,0.9296875,-0.25,0.09375,-0.15625,0.0,0.0,0.0
1696292045451,-0.01953125,0.091796875,0.94433594,-0.0625,-0.28125,-0.15625,0.0,0.0,0.0
1696292045487,-0.020507812,0.08300781,0.9375,0.125,-0.21875,-0.03125,0.0,0.0,0.0
1696292045508,-0.0234375,0.0859375,0.9511719,0.0625,-0.09375,0.15625,0.0,0.0,0.0
1696292045569,-0.005859375,0.07324219,0.9482422,-0.25,-0.21875,0.03125,0.0,0.0,0.0
1696292045600,-0.021484375,0.08300781,0.9453125,-0.125,-0.09375,-0.09375,0.0,0.0,0.0
1696292045629,-0.017578125,0.08203125,0.94140625,0.0625,0.15625,-0.15625,0.0,0.0,0.0
1696292045692,-0.0146484375,0.08203125,0.9375,0.125,0.15625,-0.03125,0.0,0.0,0.0
1696292045725,-0.017578125,0.08691406,0.9326172,-0.46875,-0.03125,-0.03125,0.0,0.0,0.0
1696292045747,-0.013671875,0.08691406,0.9375,-0.1875,-0.28125,0.15625,-22.0625,-35.8125,-170.625
1696292045809,-0.016601562,0.07714844,0.9375,-0.09375,-0.03125,0.09375,0.0,0.0,0.0
1696292045846,-0.015625,0.078125,0.9511719,0.15625,-0.09375,-0.03125,0.0,0.0,0.0
1696292045868,-0.020507812,0.083984375,0.9433594,0.15625,0.15625,0.03125,0.0,0.0,0.0
1696292045947,-0.0234375,0.080078125,0.9482422,-0.21875,-0.09375,-0.21875,0.0,0.0,0.0
1696292045962,-0.017578125,0.0859375,0.93359375,0.03125,-0.03125,0.03125,0.0,0.0,0.0
1696292045991,-0.021484375,0.08886719,0.93652344,0.09375,0.15625,0.03125,0.0,0.0,0.0
1696292046018,-0.0126953125,0.0859375,0.94628906,0.15625,-0.03125,0.03125,0.0,0.0,0.0
1696292046081,-0.0234375,0.08691406,0.93066406,-0.03125,0.09375,-0.03125,0.0,0.0,0.0
1696292046109,-0.0234375,0.07910156,0.94433594,-0.28125,-0.03125,-0.09375,0.0,0.0,0.0
1696292046138,-0.018554688,0.078125,0.92578125,0.09375,-0.34375,-0.09375,0.0,0.0,0.0
1696292046203,-0.01953125,0.08496094,0.9199219,0.15625,0.03125,0.09375,0.0,0.0,0.0
1696292046228,-0.020507812,0.08691406,0.9375,-0.09375,0.03125,0.09375,0.0,0.0,0.0
1696292046294,-0.0068359375,0.078125,0.9501953,-0.4375,-0.40625,0.03125,-22.0625,-35.5,-169.875
1696292046320,-0.026367188,0.07421875,0.9472656,0.15625,0.15625,0.09375,0.0,0.0,0.0
1696292046349,-0.022460938,0.08496094,0.9296875,0.34375,0.34375,-0.28125,0.0,0.0,0.0
1696292046387,-0.016601562,0.09082031,0.9453125,-0.21875,0.09375,0.03125,0.0,0.0,0.0
1696292046440,-0.016601562,0.091796875,0.9296875,-0.28125,-0.15625,0.03125,0.0,0.0,0.0
1696292046469,-0.026367188,0.07910156,0.9453125,0.15625,0.28125,0.09375,0.0,0.0,0.0
1696292046498,-0.022460938,0.08203125,0.93652344,-0.28125,-0.15625,0.03125,0.0,0.0,0.0
1696292046564,-0.01953125,0.083984375,0.93847656,0.21875,-0.03125,-0.09375,0.0,0.0,0.0
1696292046588,-0.016601562,0.08984375,0.92871094,0.09375,0.28125,-0.09375,0.0,0.0,0.0
1696292046619,-0.018554688,0.08105469,0.9511719,-0.21875,-0.21875,-0.09375,0.0,0.0,0.0
1696292046683,-0.022460938,0.08496094,0.93847656,0.09375,0.28125,-0.03125,0.0,0.0,0.0
1696292046708,-0.022460938,0.07910156,0.9394531,-0.03125,-0.28125,-0.03125,0.0,0.0,0.0
1696292046740,-0.0126953125,0.07910156,0.9277344,0.21875,0.09375,0.09375,-22.1875,-35.6875,-169.375
1696292046802,-0.0126953125,0.08203125,0.9609375,-0.09375,0.15625,-0.09375,0.0,0.0,0.0
1696292046830,-0.021484375,0.076171875,0.9296875,-0.09375,-0.15625,-0.15625,0.0,0.0,0.0
1696292046860,-0.018554688,0.09375,0.9296875,-0.03125,-0.15625,-0.09375,0.0,0.0,0.0
1696292046925,-0.0146484375,0.08984375,0.9482422,0.09375,0.03125,-0.03125,0.0,0.0,0.0
1696292046949,-0.013671875,0.083984375,0.9296875,-0.09375,0.15625,0.03125,0.0,0.0,0.0
1696292047008,-0.025390625,0.07910156,0.9326172,-0.28125,-0.15625,0.03125,0.0,0.0,0.0
1696292047042,-0.020507812,0.08300781,0.9345703,0.09375,0.34375,0.03125,0.0,0.0,0.0
1696292047098,-0.0107421875,0.087890625,0.9316406,0.21875,0.15625,-0.21875,0.0,0.0,0.0
1696292047099,-0.005859375,0.083984375,0.95410156,-0.28125,-0.09375,0.09375,0.0,0.0,0.0
1696292047161,-0.0146484375,0.07910156,0.9453125,-0.5,-0.28125,0.15625,0.0,0.0,0.0
1696292047189,-0.025390625,0.07519531,0.9501953,0.03125,0.15625,0.09375,0.0,0.0,0.0
1696292047221,-0.020507812,0.083984375,0.9472656,-0.03125,-0.15625,0.03125,0.0,0.0,0.0
1696292047307,-0.0146484375,0.0859375,0.9453125,0.28125,0.03125,-0.15625,-20.875,-36.5625,-169.5625
1696292047309,-0.022460938,0.07519531,0.93652344,-0.09375,-0.09375,0.15625,0.0,0.0,0.0
1696292047372,-0.01953125,0.08105469,0.9580078,0.28125,0.34375,-0.21875,0.0,0.0,0.0
1696292047400,-0.020507812,0.08105469,0.93652344,0.03125,0.15625,0.03125,0.0,0.0,0.0
1696292047430,-0.01171875,0.08496094,0.9375,-0.09375,-0.28125,0.03125,0.0,0.0,0.0
1696292047460,-0.009765625,0.08984375,0.93652344,0.21875,0.21875,0.09375,0.0,0.0,0.0
1696292047523,-0.020507812,0.078125,0.9560547,-0.15625,0.09375,0.03125,0.0,0.0,0.0
1696292047549,-0.017578125,0.09277344,0.9326172,-0.09375,-0.15625,-0.03125,0.0,0.0,0.0
1696292047582,-0.0087890625,0.08496094,0.9316406,0.09375,0.09375,-0.03125,0.0,0.0,0.0
1696292047645,-0.0146484375,0.08203125,0.93359375,0.15625,0.03125,0.03125,0.0,0.0,0.0
1696292047671,-0.0107421875,0.08300781,0.9326172,-0.21875,0.15625,-0.03125,0.0,0.0,0.0
1696292047701,-0.017578125,0.07714844,0.9501953,-0.15625,0.03125,0.03125,0.0,0.0,0.0
1696292047762,-0.029296875,0.083984375,0.93066406,0.28125,0.59375,-0.21875,-21.3125,-36.125,-169.25
1696292047792,-0.017578125,0.09082031,0.9394531,0.15625,0.28125,-0.03125,0.0,0.0,0.0
1696292047819,-0.020507812,0.08984375,0.9355469,-0.34375,0.15625,0.09375,0.0,0.0,0.0
1696292047882,-0.0146484375,0.08691406,0.9296875,-0.15625,-0.03125,0.03125,0.0,0.0,0.0
1696292047907,-0.025390625,0.08886719,0.9453125,0.03125,0.15625,0.09375,0.0,0.0,0.0
1696292047938,-0.0234375,0.08691406,0.953125,0.03125,0.09375,-0.09375,0.0,0.0,0.0
1696292048003,-0.013671875,0.08691406,0.94433594,0.40625,0.09375,-0.09375,0.0,0.0,0.0
1696292048030,-0.020507812,0.08886719,0.9453125,0.09375,0.15625,-0.03125,0.0,0.0,0.0
1696292048059,-0.013671875,0.095703125,0.9453125,0.03125,0.34375,-0.03125,0.0,0.0,0.0
1696292048121,-0.018554688,0.08496094,0.94140625,0.03125,0.28125,-0.03125,0.0,0.0,0.0
1696292048147,-0.025390625,0.08203125,0.9394531,0.15625,-0.28125,0.15625,0.0,0.0,0.0
1696292048179,-0.0234375,0.08496094,0.9423828,0.03125,0.21875,0.21875,0.0,0.0,0.0
1696292048242,-0.03125,0.07910156,0.9433594,-0.21875,0.21875,-0.09375,0.0,0.0,0.0
1696292048272,-0.021484375,0.08691406,0.9560547,0.03125,0.09375,-0.09375,-22.0625,-36.125,-168.8125
1696292048302,-0.01953125,0.09082031,0.9501953,0.15625,-0.09375,0.09375,0.0,0.0,0.0
1696292048359,-0.022460938,0.0859375,0.9501953,0.65625,0.28125,0.09375,0.0,0.0,0.0
1696292048389,-0.01953125,0.08496094,0.93066406,-0.40625,0.21875,-0.09375,0.0,0.0,0.0
1696292048422,-0.02734375,0.08496094,0.9501953,-0.5,-0.09375,-0.09375,0.0,0.0,0.0
1696292048481,-0.020507812,0.08496094,0.94921875,0.78125,0.46875,-0.15625,0.0,0.0,0.0
1696292048508,-0.020507812,0.09667969,0.9501953,-0.09375,-0.15625,-0.03125,0.0,0.0,0.0
1696292048539,-0.026367188,0.08496094,0.9394531,-0.5,-0.03125,-0.03125,0.0,0.0,0.0
1696292048599,-0.022460938,0.08496094,0.9238281,0.09375,0.09375,0.03125,0.0,0.0,0.0
1696292048628,-0.020507812,0.083984375,0.9501953,-0.21875,0.03125,-0.15625,0.0,0.0,0.0
1696292048659,-0.017578125,0.08203125,0.9316406,0.21875,0.03125,-0.09375,0.0,0.0,0.0
1696292048720,-0.0146484375,0.08300781,0.9375,0.09375,0.15625,0.03125,0.0,0.0,0.0
1696292048747,-0.022460938,0.08691406,0.93652344,-0.15625,-0.03125,-0.09375,-22.625,-35.5,-169.5625
1696292048779,-0.020507812,0.08496094,0.94140625,0.15625,0.15625,-0.03125,0.0,0.0,0.0
1696292048843,-0.026367188,0.091796875,0.93652344,-0.15625,-0.34375,-0.15625,0.0,0.0,0.0
1696292048871,-0.020507812,0.08691406,0.9404297,0.21875,-0.15625,0.15625,0.0,0.0,0.0
1696292048901,-0.009765625,0.080078125,0.9472656,-0.15625,0.09375,-0.03125,0.0,0.0,0.0
1696292048959,-0.028320312,0.08496094,0.95214844,-0.4375,-0.15625,-0.09375,0.0,0.0,0.0
1696292048992,-0.016601562,0.083984375,0.94140625,0.21875,-0.03125,-0.03125,0.0,0.0,0.0
1696292049021,-0.017578125,0.08203125,0.94433594,0.46875,0.15625,-0.03125,0.0,0.0,0.0
1696292049082,-0.021484375,0.0859375,0.9453125,-0.09375,-0.15625,0.15625,0.0,0.0,0.0
1696292049107,-0.020507812,0.08203125,0.94628906,-0.28125,-0.15625,-0.09375,0.0,0.0,0.0
1696292049139,-0.024414062,0.091796875,0.93652344,-0.03125,0.09375,0.09375,0.0,0.0,0.0
1696292049200,-0.024414062,0.08886719,0.93066406,0.28125,0.21875,-0.28125,0.0,0.0,0.0
1696292049228,-0.01953125,0.08496094,0.9453125,-0.40625,-0.21875,-0.03125,0.0,0.0,0.0
1696292049290,-0.016601562,0.078125,0.94140625,-0.40625,-0.34375,0.15625,-23.125,-35.0625,-168.8125
1696292049321,-0.018554688,0.087890625,0.95410156,0.28125,0.15625,0.21875,0.0,0.0,0.0
1696292049353,-0.028320312,0.076171875,0.9355469,-0.28125,-0.03125,0.09375,0.0,0.0,0.0
1696292049384,-0.0146484375,0.08105469,0.9511719,0.34375,0.09375,-0.03125,0.0,0.0,0.0
1696292049442,-0.013671875,0.08496094,0.93359375,0.28125,0.34375,0.15625,0.0,0.0,0.0
1696292049470,-0.016601562,0.08496094,0.92578125,-0.03125,0.03125,-0.03125,0.0,0.0,0.0
1696292049503,-0.021484375,0.08691406,0.94921875,0.09375,0.40625,0.15625,0.0,0.0,0.0
1696292049562,-0.018554688,0.08886719,0.9550781,-0.03125,-0.28125,-0.03125,0.0,0.0,0.0
1696292049590,-0.0068359375,0.08691406,0.9423828,0.15625,-0.09375,0.21875,0.0,0.0,0.0
1696292049624,-0.018554688,0.087890625,0.9355469,0.09375,0.53125,-0.03125,0.0,0.0,0.0
1696292049678,-0.022460938,0.07714844,0.94433594,-0.03125,0.21875,-0.09375,0.0,0.0,0.0
1696292049709,-0.022460938,0.083984375,0.9267578,-0.09375,0.03125,-0.03125,0.0,0.0,0.0
1696292049739,-0.0126953125,0.08886719,0.9404297,0.28125,0.34375,0.03125,-21.4375,-35.6875,-169.125
1696292049804,-0.02734375,0.0703125,0.9296875,0.28125,0.28125,0.15625,0.0,0.0,0.0
1696292049831,-0.01953125,0.09082031,0.93847656,-0.40625,-0.09375,-0.03125,0.0,0.0,0.0
1696292049860,-0.032226562,0.083984375,0.9550781,0.09375,0.53125,0.03125,0.0,0.0,0.0
1696292049920,-0.015625,0.08496094,0.9423828,0.59375,0.9375,-0.53125,0.0,0.0,0.0
1696292049949,-0.009765625,0.08984375,0.95703125,-0.4375,-0.15625,0.09375,0.0,0.0,0.0
1696292049984,-0.021484375,0.08886719,0.9355469,-0.34375,-0.28125,0.09375,0.0,0.0,0.0
1696292050040,-0.029296875,0.08691406,0.9316406,0.34375,0.15625,-0.03125,0.0,0.0,0.0
1696292050073,-0.025390625,0.08496094,0.93847656,-0.15625,0.03125,-0.03125,0.0,0.0,0.0
1696292050099,-0.020507812,0.091796875,0.9433594,0.40625,0.09375,-0.09375,0.0,0.0,0.0
1696292050162,-0.015625,0.08203125,0.9423828,0.03125,0.28125,0.03125,0.0,0.0,0.0
1696292050190,-0.02734375,0.08691406,0.9404297,-0.03125,0.03125,-0.15625,0.0,0.0,0.0
1696292050220,-0.024414062,0.09472656,0.94921875,0.03125,0.09375,0.03125,0.0,0.0,0.0
1696292050281,-0.0390625,0.0859375,0.9511719,-0.15625,-0.09375,0.09375,-22.0625,-35.5,-170.3125
1696292050339,-0.015625,0.09375,0.9453125,0.21875,-0.03125,0.03125,0.0,0.0,0.0
1696292050341,-0.02734375,0.103515625,0.9394531,-0.09375,0.21875,-0.09375,0.0,0.0,0.0
1696292050401,-0.02734375,0.07714844,0.94628906,-0.28125,-0.09375,-0.21875,0.0,0.0,0.0
1696292050433,-0.026367188,0.080078125,0.9472656,0.03125,-0.03125,-0.03125,0.0,0.0,0.0
1696292050460,-0.020507812,0.09277344,0.9501953,-0.09375,-0.09375,-0.15625,0.0,0.0,0.0
1696292050524,-0.030273438,0.08203125,0.95214844,0.03125,-0.03125,0.09375,0.0,0.0,0.0
1696292050554,-0.021484375,0.08300781,0.94628906,-0.28125,-0.34375,-0.09375,0.0,0.0,0.0
1696292050580,-0.030273438,0.08496094,0.9472656,-0.34375,-0.46875,-0.03125,0.0,0.0,0.0
1696292050642,-0.021484375,0.08691406,0.94628906,0.59375,0.40625,-0.21875,0.0,0.0,0.0
1696292050669,-0.016601562,0.087890625,0.9482422,-0.15625,-0.15625,-0.03125,0.0,0.0,0.0
1696292050699,-0.022460938,0.08984375,0.9501953,-0.6875,-0.40625,0.15625,0.0,0.0,0.0
1696292050762,-0.015625,0.08691406,0.9355469,-0.09375,-0.46875,0.03125,-22.1875,-37.0,-169.375
1696292050791,-0.0234375,0.083984375,0.9501953,-0.21875,0.03125,-0.03125,0.0,0.0,0.0
1696292050820,-0.025390625,0.08105469,0.94921875,-0.03125,-0.46875,-0.15625,0.0,0.0,0.0
1696292050878,-0.016601562,0.08691406,0.9345703,0.40625,-0.28125,0.03125,0.0,0.0,0.0
1696292050908,-0.017578125,0.08105469,0.9423828,-0.09375,-0.28125,-0.03125,0.0,0.0,0.0
1696292050942,-0.024414062,0.087890625,0.93066406,-0.09375,-0.15625,0.09375,0.0,0.0,0.0
1696292051000,-0.01953125,0.08886719,0.93359375,-0.09375,-0.09375,-0.15625,0.0,0.0,0.0
1696292051030,-0.01171875,0.08984375,0.9453125,0.09375,-0.34375,0.09375,0.0,0.0,0.0
1696292051062,-0.017578125,0.08203125,0.9375,-0.09375,-0.15625,0.09375,0.0,0.0,0.0
1696292051123,-0.0078125,0.095703125,0.9404297,0.03125,0.15625,-0.15625,0.0,0.0,0.0
1696292051151,-0.033203125,0.08496094,0.93652344,-0.15625,-0.15625,0.15625,0.0,0.0,0.0
1696292051181,-0.009765625,0.08300781,0.94140625,-0.21875,-0.34375,-0.09375,0.0,0.0,0.0
1696292051242,-0.013671875,0.08691406,0.93652344,0.28125,0.09375,-0.09375,0.0,0.0,0.0
1696292051272,-0.0146484375,0.09082031,0.9404297,-0.15625,0.03125,0.09375,-22.0625,-37.1875,-169.25
1696292051299,-0.01953125,0.083984375,0.93359375,-0.34375,-0.40625,-0.03125,0.0,0.0,0.0
1696292051360,-0.022460938,0.07714844,0.9501953,0.15625,0.21875,0.03125,0.0,0.0,0.0
1696292051391,-0.0146484375,0.091796875,0.93359375,0.34375,0.21875,-0.28125,0.0,0.0,0.0
1696292051421,-0.021484375,0.08300781,0.93066406,-0.625,-0.28125,0.03125,0.0,0.0,0.0
1696292051486,-0.020507812,0.083984375,0.9296875,-0.21875,-0.40625,0.09375,0.0,0.0,0.0
1696292051509,-0.01953125,0.08691406,0.9501953,0.09375,0.09375,-0.09375,0.0,0.0,0.0
1696292051571,-0.018554688,0.083984375,0.9482422,-0.28125,-0.21875,-0.03125,0.0,0.0,0.0
1696292051605,-0.016601562,0.078125,0.9433594,0.15625,-0.09375,0.09375,0.0,0.0,0.0
1696292051629,-0.022460938,0.07128906,0.93847656,0.09375,0.15625,0.09375,0.0,0.0,0.0
1696292051659,-0.026367188,0.083984375,0.9482422,-0.09375,0.03125,-0.09375,0.0,0.0,0.0
1696292051725,-0.026367188,0.08496094,0.9404297,-0.09375,-0.03125,0.03125,0.0,0.0,0.0
1696292051748,-0.016601562,0.09082031,0.94921875,-0.03125,-0.21875,0.03125,-21.625,-35.5,-170.625
1696292051779,-0.015625,0.08496094,0.9453125,0.21875,-0.21875,-0.03125,0.0,0.0,0.0
