# Sensor type: Thingy
# Activity type: Lying down right
# Activity subtype: Normal
# Subject id: s2094833
# Notes: 
timestamp,accel_x,accel_y,accel_z,gyro_x,gyro_y,gyro_z,mag_x,mag_y,mag_z
1696291850840,0.234375,-0.8828125,0.41992188,-0.75,-0.03125,-0.15625,0.0,0.0,0.0
1696291850927,0.23730469,-0.890625,0.39257812,-0.96875,-0.09375,0.25,0.0,0.0,0.0
1696291850929,0.22265625,-0.88378906,0.40527344,-0.625,0.03125,0.4375,0.0,0.0,0.0
1696291850958,0.22558594,-0.8955078,0.4033203,0.90625,0.09375,0.1875,0.0,0.0,0.0
1696291851019,0.23046875,-0.88964844,0.4013672,0.46875,0.15625,0.03125,0.0,0.0,0.0
1696291851048,0.22949219,-0.89160156,0.41503906,-0.125,-0.15625,-0.15625,0.0,0.0,0.0
1696291851079,0.23730469,-0.8857422,0.4111328,0.0625,0.09375,-0.03125,0.0,0.0,0.0
1696291851137,0.2265625,-0.8857422,0.4033203,0.0,0.09375,0.03125,0.0,0.0,0.0
1696291851169,0.23144531,-0.89941406,0.41210938,-0.28125,-0.125,0.03125,0.0,0.0,0.0
1696291851199,0.23339844,-0.89746094,0.41601562,-0.53125,-0.0625,0.34375,0.0,0.0,0.0
1696291851259,0.22851562,-0.8935547,0.4111328,0.25,-0.125,0.03125,-18.625,-71.1875,-201.5
1696291851287,0.22753906,-0.8798828,0.40039062,0.8125,0.0,-0.21875,0.0,0.0,0.0
1696291851318,0.23339844,-0.8886719,0.40039062,0.5,0.0,-0.28125,0.0,0.0,0.0
1696291851378,0.22558594,-0.8886719,0.3955078,0.0625,0.0,-0.21875,0.0,0.0,0.0
1696291851408,0.23046875,-0.8886719,0.40234375,0.25,0.0625,0.09375,0.0,0.0,0.0
1696291851439,0.23632812,-0.8857422,0.40625,0.25,0.125,0.03125,0.0,0.0,0.0
1696291851497,0.23535156,-0.89160156,0.4033203,-0.59375,0.0625,-0.21875,0.0,0.0,0.0
1696291851529,0.23339844,-0.8828125,0.40527344,-0.96875,-0.0625,-0.03125,0.0,0.0,0.0
1696291851560,0.23144531,-0.8828125,0.40039062,-0.53125,-0.0625,0.09375,0.0,0.0,0.0
1696291851617,0.22167969,-0.8876953,0.4033203,0.875,0.1875,0.09375,0.0,0.0,0.0
1696291851651,0.21875,-0.88671875,0.42578125,0.75,0.0625,-0.15625,0.0,0.0,0.0
1696291851677,0.23046875,-0.88183594,0.4013672,0.3125,0.0,-0.03125,0.0,0.0,0.0
1696291851739,0.22558594,-0.890625,0.39746094,-0.03125,-0.125,-0.40625,0.0,0.0,0.0
1696291851779,0.234375,-0.8876953,0.41601562,0.3125,0.125,-0.28125,-17.5625,-72.6875,-200.75
1696291851802,0.23730469,-0.8935547,0.41015625,0.03125,0.125,-0.15625,0.0,0.0,0.0
1696291851861,0.22949219,-0.890625,0.4169922,-0.15625,0.0625,0.28125,0.0,0.0,0.0
1696291851890,0.2265625,-0.89160156,0.40527344,-0.09375,0.0625,0.34375,0.0,0.0,0.0
1696291851920,0.23242188,-0.8769531,0.4013672,0.03125,0.0,0.15625,0.0,0.0,0.0
1696291851979,0.22949219,-0.890625,0.39648438,0.03125,-0.0625,-0.21875,0.0,0.0,0.0
1696291852008,0.234375,-0.88378906,0.4111328,-0.15625,-0.25,-0.28125,0.0,0.0,0.0
1696291852039,0.23828125,-0.89160156,0.40039062,0.03125,0.0625,-0.09375,0.0,0.0,0.0
1696291852099,0.234375,-0.88378906,0.3935547,0.5,0.0,-0.03125,0.0,0.0,0.0
1696291852135,0.2265625,-0.89746094,0.3984375,-0.34375,0.0625,-0.03125,0.0,0.0,0.0
1696291852162,0.23242188,-0.88671875,0.40527344,-0.71875,-0.0625,0.09375,0.0,0.0,0.0
1696291852219,0.22460938,-0.88671875,0.41503906,0.1875,0.0625,0.09375,0.0,0.0,0.0
1696291852248,0.22949219,-0.88964844,0.42285156,0.8125,0.0625,-0.03125,-18.4375,-71.375,-201.9375
1696291852286,0.22363281,-0.88964844,0.40429688,0.4375,0.0,-0.15625,0.0,0.0,0.0
1696291852343,0.22167969,-0.89160156,0.421875,-0.03125,-0.1875,-0.09375,0.0,0.0,0.0
1696291852368,0.2421875,-0.88671875,0.40527344,-0.03125,-0.1875,-0.21875,0.0,0.0,0.0
1696291852398,0.234375,-0.88964844,0.40527344,0.0625,0.0,-0.15625,0.0,0.0,0.0
1696291852458,0.22851562,-0.87890625,0.41015625,-0.34375,-0.0625,-0.15625,0.0,0.0,0.0
1696291852488,0.23046875,-0.890625,0.4111328,-0.34375,-0.0625,0.28125,0.0,0.0,0.0
1696291852522,0.22167969,-0.88378906,0.40820312,0.375,0.0,0.28125,0.0,0.0,0.0
1696291852581,0.22949219,-0.8769531,0.41308594,-0.03125,-0.125,0.09375,0.0,0.0,0.0
1696291852608,0.22949219,-0.8828125,0.40234375,-0.46875,-0.125,-0.28125,0.0,0.0,0.0
1696291852640,0.23339844,-0.89160156,0.3935547,-0.15625,-0.125,-0.34375,0.0,0.0,0.0
1696291852703,0.23144531,-0.88671875,0.421875,0.125,-0.1875,-0.28125,0.0,0.0,0.0
1696291852728,0.23242188,-0.8876953,0.3857422,0.5625,0.0,-0.40625,0.0,0.0,0.0
1696291852759,0.23339844,-0.890625,0.40820312,0.1875,0.0625,-0.21875,-19.0625,-70.3125,-200.625
1696291852820,0.23632812,-0.8798828,0.3955078,-0.59375,-0.125,-0.09375,0.0,0.0,0.0
1696291852848,0.24023438,-0.89453125,0.40039062,-0.65625,0.0,0.09375,0.0,0.0,0.0
1696291852881,0.22949219,-0.8857422,0.40625,-0.03125,0.0,0.28125,0.0,0.0,0.0
1696291852953,0.22851562,-0.890625,0.39746094,0.375,0.25,-0.03125,0.0,0.0,0.0
1696291852967,0.23339844,-0.8876953,0.4013672,-0.03125,-0.125,-0.15625,0.0,0.0,0.0
1696291852998,0.23242188,-0.8925781,0.40429688,-0.40625,-0.1875,-0.28125,0.0,0.0,0.0
1696291853064,0.23242188,-0.8925781,0.3984375,-0.09375,-0.125,-0.34375,0.0,0.0,0.0
1696291853087,0.23632812,-0.8808594,0.39648438,0.375,0.0,-0.15625,0.0,0.0,0.0
1696291853118,0.23828125,-0.88183594,0.41210938,0.0625,0.0625,0.03125,0.0,0.0,0.0
1696291853211,0.23242188,-0.8847656,0.38867188,-0.09375,0.0,0.34375,0.0,0.0,0.0
1696291853213,0.23339844,-0.8857422,0.40234375,-0.03125,-0.25,-0.03125,0.0,0.0,0.0
1696291853240,0.23339844,-0.89160156,0.40234375,-0.03125,0.0625,-0.15625,-18.625,-70.9375,-198.9375
1696291853301,0.23632812,-0.8935547,0.41503906,-0.28125,-0.125,-0.15625,0.0,0.0,0.0
1696291853327,0.22949219,-0.890625,0.41601562,-0.03125,-0.125,-0.09375,0.0,0.0,0.0
1696291853360,0.23730469,-0.890625,0.39746094,0.25,0.0625,0.03125,0.0,0.0,0.0
1696291853420,0.22558594,-0.8798828,0.40625,0.4375,0.0,-0.09375,0.0,0.0,0.0
1696291853447,0.22265625,-0.87109375,0.42089844,-0.21875,0.0625,-0.21875,0.0,0.0,0.0
1696291853478,0.23828125,-0.88378906,0.41601562,-0.96875,-0.125,-0.03125,0.0,0.0,0.0
1696291853544,0.23144531,-0.8886719,0.4140625,-0.71875,0.0,0.09375,0.0,0.0,0.0
1696291853577,0.23046875,-0.8876953,0.40625,0.25,0.125,0.21875,0.0,0.0,0.0
1696291853598,0.2265625,-0.8876953,0.40429688,0.4375,0.1875,0.09375,0.0,0.0,0.0
1696291853658,0.22558594,-0.8876953,0.38867188,-0.09375,-0.1875,-0.15625,0.0,0.0,0.0
1696291853689,0.23242188,-0.8798828,0.4033203,-0.09375,0.0625,-0.15625,0.0,0.0,0.0
1696291853731,0.23046875,-0.88378906,0.39648438,0.0625,0.0625,-0.03125,0.0,0.0,0.0
1696291853777,0.23242188,-0.88671875,0.41601562,0.03125,0.0625,-0.15625,-18.625,-70.1875,-199.6875
1696291853809,0.22949219,-0.89160156,0.41015625,-0.28125,0.0,0.09375,0.0,0.0,0.0
1696291853839,0.23339844,-0.89746094,0.40625,-0.09375,-0.0625,0.21875,0.0,0.0,0.0
1696291853902,0.23046875,-0.8886719,0.4169922,0.5,0.0,-0.03125,0.0,0.0,0.0
1696291853929,0.23242188,-0.8857422,0.4169922,0.625,-0.125,-0.40625,0.0,0.0,0.0
1696291853962,0.234375,-0.88671875,0.41015625,0.6875,-0.1875,-0.28125,0.0,0.0,0.0
1696291854019,0.2265625,-0.8876953,0.40625,0.1875,0.0625,0.03125,0.0,0.0,0.0
1696291854050,0.23730469,-0.8857422,0.40722656,0.125,0.0625,0.21875,0.0,0.0,0.0
1696291854078,0.22949219,-0.87402344,0.40722656,0.03125,0.0625,-0.03125,0.0,0.0,0.0
1696291854142,0.23144531,-0.8847656,0.40820312,-0.71875,0.0,-0.28125,0.0,0.0,0.0
1696291854169,0.23046875,-0.89453125,0.40820312,-1.25,-0.0625,-0.03125,0.0,0.0,0.0
1696291854199,0.23242188,-0.8798828,0.40429688,-0.21875,-0.0625,0.15625,0.0,0.0,0.0
1696291854260,0.22851562,-0.88378906,0.4033203,1.1875,0.1875,0.15625,-17.6875,-71.8125,-200.875
1696291854289,0.22851562,-0.8857422,0.3935547,0.6875,0.0,-0.03125,0.0,0.0,0.0
1696291854321,0.22949219,-0.89941406,0.41503906,0.0625,0.0625,-0.21875,0.0,0.0,0.0
1696291854379,0.23144531,-0.89160156,0.39746094,0.3125,-0.25,-0.21875,0.0,0.0,0.0
1696291854409,0.23535156,-0.8925781,0.41601562,0.25,0.0625,-0.28125,0.0,0.0,0.0
1696291854439,0.22753906,-0.8925781,0.3955078,-0.15625,0.0,-0.09375,0.0,0.0,0.0
1696291854498,0.23535156,-0.8886719,0.40722656,-0.15625,0.0,0.21875,0.0,0.0,0.0
1696291854531,0.22949219,-0.8886719,0.4091797,0.03125,0.125,0.28125,0.0,0.0,0.0
1696291854559,0.23144531,-0.8886719,0.41210938,0.0625,0.1875,-0.03125,0.0,0.0,0.0
1696291854619,0.22851562,-0.88378906,0.41210938,0.0625,0.0,-0.09375,0.0,0.0,0.0
1696291854649,0.23242188,-0.88671875,0.40234375,0.0625,0.0,-0.28125,0.0,0.0,0.0
1696291854681,0.23046875,-0.890625,0.4169922,0.25,0.0,-0.09375,0.0,0.0,0.0
1696291854740,0.23632812,-0.89160156,0.38867188,0.625,0.0,-0.03125,0.0,0.0,0.0
1696291854767,0.22851562,-0.88671875,0.4189453,0.5625,0.125,-0.03125,-18.875,-73.4375,-199.6875
1696291854799,0.22949219,-0.8935547,0.40527344,-0.65625,0.0,-0.34375,0.0,0.0,0.0
1696291854865,0.23339844,-0.88183594,0.40039062,-0.96875,-0.0625,-0.15625,0.0,0.0,0.0
1696291854887,0.23828125,-0.890625,0.41015625,0.0625,0.1875,0.15625,0.0,0.0,0.0
1696291854917,0.22753906,-0.88671875,0.4013672,0.875,0.0625,0.28125,0.0,0.0,0.0
1696291854983,0.22851562,-0.8779297,0.41015625,0.375,0.1875,-0.15625,0.0,0.0,0.0
1696291855008,0.22949219,-0.8876953,0.4140625,-0.03125,-0.125,-0.21875,0.0,0.0,0.0
1696291855039,0.23339844,-0.88183594,0.4111328,0.0625,-0.0625,-0.28125,0.0,0.0,0.0
1696291855099,0.23144531,-0.87890625,0.40234375,0.3125,0.0625,-0.21875,0.0,0.0,0.0
1696291855130,0.22753906,-0.8798828,0.4033203,0.03125,0.0,-0.28125,0.0,0.0,0.0
1696291855158,0.22851562,-0.88378906,0.4033203,-0.03125,-0.125,0.15625,0.0,0.0,0.0
1696291855221,0.23925781,-0.8925781,0.39746094,0.1875,0.125,0.09375,0.0,0.0,0.0
1696291855250,0.23144531,-0.890625,0.41210938,0.0625,0.0,0.28125,0.0,0.0,0.0
1696291855280,0.22851562,-0.8808594,0.40527344,-0.09375,-0.25,-0.21875,-17.5625,-71.9375,-201.5
1696291855339,0.22949219,-0.890625,0.41503906,-0.09375,0.125,-0.15625,0.0,0.0,0.0
1696291855367,0.22558594,-0.8964844,0.40625,0.0625,0.125,-0.15625,0.0,0.0,0.0
1696291855401,0.22753906,-0.8847656,0.4111328,1.0,0.0625,0.09375,0.0,0.0,0.0
1696291855491,0.22949219,-0.8798828,0.40429688,0.125,0.0625,-0.21875,0.0,0.0,0.0
1696291855495,0.23339844,-0.890625,0.40625,-0.96875,-0.0625,-0.15625,0.0,0.0,0.0
1696291855520,0.234375,-0.88671875,0.41601562,-0.84375,-0.125,0.03125,0.0,0.0,0.0
1696291855581,0.23046875,-0.8886719,0.40039062,0.125,0.0625,0.21875,0.0,0.0,0.0
1696291855613,0.22753906,-0.8876953,0.4267578,0.875,0.0625,0.15625,0.0,0.0,0.0
1696291855643,0.234375,-0.88378906,0.4111328,0.0625,-0.1875,0.03125,0.0,0.0,0.0
1696291855730,0.23144531,-0.8847656,0.40820312,-0.09375,-0.3125,-0.09375,0.0,0.0,0.0
1696291855731,0.24023438,-0.89941406,0.40625,0.0625,0.0,-0.15625,0.0,0.0,0.0
1696291855758,0.22558594,-0.8857422,0.41210938,0.125,0.0,-0.15625,-18.75,-71.8125,-200.625
1696291855820,0.23046875,-0.88378906,0.42089844,-0.40625,-0.125,0.09375,0.0,0.0,0.0
1696291855850,0.22558594,-0.8886719,0.41308594,-0.59375,-0.125,0.28125,0.0,0.0,0.0
1696291855879,0.23046875,-0.8857422,0.41015625,-0.03125,-0.0625,0.09375,0.0,0.0,0.0
1696291855974,0.23242188,-0.8935547,0.4013672,-0.21875,-0.125,-0.15625,0.0,0.0,0.0
1696291855977,0.22753906,-0.8779297,0.41015625,-0.34375,-0.25,-0.09375,0.0,0.0,0.0
1696291855999,0.22753906,-0.88183594,0.4111328,-0.28125,-0.3125,-0.28125,0.0,0.0,0.0
1696291856059,0.24023438,-0.89160156,0.39941406,-0.03125,-0.125,-0.40625,0.0,0.0,0.0
1696291856092,0.22265625,-0.8935547,0.39746094,0.375,-0.125,-0.21875,0.0,0.0,0.0
1696291856121,0.23339844,-0.8886719,0.40625,-0.34375,-0.1875,-0.15625,0.0,0.0,0.0
1696291856179,0.23144531,-0.8935547,0.4111328,-0.84375,-0.3125,-0.03125,0.0,0.0,0.0
1696291856211,0.23339844,-0.89160156,0.42089844,-0.78125,-0.1875,0.09375,0.0,0.0,0.0
1696291856239,0.23046875,-0.8876953,0.41992188,0.03125,0.0,0.09375,0.0,0.0,0.0
1696291856305,0.23242188,-0.8847656,0.40820312,0.0625,-0.0625,0.15625,-19.5,-72.875,-201.9375
1696291856333,0.23144531,-0.88183594,0.4033203,-0.09375,-0.1875,0.03125,0.0,0.0,0.0
1696291856361,0.23632812,-0.8857422,0.42871094,-0.28125,-0.25,-0.21875,0.0,0.0,0.0
1696291856422,0.24316406,-0.89160156,0.41015625,0.0625,-0.125,-0.15625,0.0,0.0,0.0
1696291856447,0.23339844,-0.8876953,0.41308594,0.03125,-0.0625,-0.03125,0.0,0.0,0.0
1696291856478,0.234375,-0.8828125,0.40625,-0.21875,-0.1875,0.09375,0.0,0.0,0.0
1696291856541,0.23242188,-0.8857422,0.40625,-0.28125,-0.1875,0.09375,0.0,0.0,0.0
1696291856567,0.234375,-0.88671875,0.40429688,-0.21875,0.0625,0.03125,0.0,0.0,0.0
1696291856598,0.22949219,-0.8876953,0.41210938,-0.15625,-0.125,-0.21875,0.0,0.0,0.0
1696291856659,0.23828125,-0.875,0.40527344,-0.21875,-0.125,-0.09375,0.0,0.0,0.0
1696291856689,0.23339844,-0.88378906,0.41210938,-0.03125,-0.0625,-0.09375,0.0,0.0,0.0
1696291856719,0.23046875,-0.8925781,0.40625,0.375,0.0,0.03125,0.0,0.0,0.0
1696291856781,0.23046875,-0.8828125,0.40722656,0.1875,-0.125,-0.15625,-17.875,-71.9375,-201.0625
1696291856810,0.22363281,-0.8935547,0.39941406,-0.71875,-0.125,-0.34375,0.0,0.0,0.0
1696291856839,0.234375,-0.8828125,0.41308594,-0.96875,-0.125,-0.03125,0.0,0.0,0.0
1696291856899,0.22851562,-0.8935547,0.4033203,-0.53125,-0.125,0.21875,0.0,0.0,0.0
1696291856927,0.22949219,-0.8935547,0.3955078,0.375,0.0625,0.21875,0.0,0.0,0.0
1696291856959,0.23144531,-0.88378906,0.40234375,0.125,-0.0625,-0.03125,0.0,0.0,0.0
1696291857021,0.22363281,-0.89746094,0.4013672,-0.21875,-0.125,-0.15625,0.0,0.0,0.0
1696291857049,0.2265625,-0.88183594,0.40820312,-0.03125,-0.0625,-0.28125,0.0,0.0,0.0
1696291857082,0.22558594,-0.890625,0.4140625,0.125,0.0625,-0.28125,0.0,0.0,0.0
1696291857142,0.23828125,-0.8857422,0.41210938,-0.03125,-0.125,-0.03125,0.0,0.0,0.0
1696291857171,0.23242188,-0.8876953,0.42089844,-0.40625,-0.25,0.09375,0.0,0.0,0.0
1696291857199,0.23242188,-0.89160156,0.4111328,-0.03125,0.0625,0.15625,0.0,0.0,0.0
1696291857260,0.23242188,-0.8876953,0.41308594,-0.09375,-0.125,0.15625,0.0,0.0,0.0
1696291857288,0.23632812,-0.8828125,0.40234375,-0.34375,-0.125,-0.15625,-18.0,-72.125,-199.5625
1696291857319,0.234375,-0.8828125,0.39160156,-0.21875,-0.25,-0.15625,0.0,0.0,0.0
1696291857380,0.22949219,-0.890625,0.41992188,-0.09375,-0.0625,-0.09375,0.0,0.0,0.0
1696291857411,0.23632812,-0.8935547,0.41308594,0.5625,0.125,0.03125,0.0,0.0,0.0
1696291857439,0.22460938,-0.88378906,0.4169922,0.3125,0.0,-0.09375,0.0,0.0,0.0
1696291857499,0.23339844,-0.8886719,0.40039062,-0.78125,-0.125,-0.21875,0.0,0.0,0.0
1696291857529,0.234375,-0.8876953,0.40625,-1.15625,-0.1875,-0.28125,0.0,0.0,0.0
1696291857566,0.23144531,-0.8886719,0.4033203,-0.15625,0.0625,0.15625,0.0,0.0,0.0
1696291857620,0.22949219,-0.890625,0.39746094,0.625,0.0625,0.09375,0.0,0.0,0.0
1696291857648,0.22265625,-0.88964844,0.41015625,0.125,-0.125,-0.15625,0.0,0.0,0.0
1696291857681,0.23632812,-0.8964844,0.4111328,-0.03125,-0.1875,-0.28125,0.0,0.0,0.0
1696291857709,0.22460938,-0.89160156,0.4033203,0.1875,0.0,-0.09375,0.0,0.0,0.0
1696291857799,0.22460938,-0.87890625,0.40234375,0.1875,-0.0625,-0.15625,-17.875,-71.6875,-200.4375
1696291857802,0.22949219,-0.89160156,0.4013672,-0.09375,-0.0625,-0.03125,0.0,0.0,0.0
1696291857829,0.23828125,-0.87597656,0.40625,-0.15625,-0.125,0.21875,0.0,0.0,0.0
1696291857891,0.22265625,-0.8935547,0.4013672,-0.15625,-0.0625,0.21875,0.0,0.0,0.0
1696291857919,0.23144531,-0.89160156,0.40234375,0.1875,0.0625,-0.03125,0.0,0.0,0.0
1696291857949,0.23535156,-0.8798828,0.40625,0.03125,0.0,-0.15625,0.0,0.0,0.0
1696291858008,0.22460938,-0.89941406,0.40527344,-0.09375,-0.125,-0.15625,0.0,0.0,0.0
1696291858042,0.23339844,-0.88183594,0.41210938,0.1875,-0.125,-0.09375,0.0,0.0,0.0
1696291858068,0.23535156,-0.8876953,0.4013672,0.5625,0.125,0.09375,0.0,0.0,0.0
1696291858131,0.22851562,-0.8847656,0.41210938,0.4375,0.0,-0.15625,0.0,0.0,0.0
1696291858159,0.23339844,-0.8876953,0.4091797,-0.59375,-0.125,-0.28125,0.0,0.0,0.0
1696291858189,0.23144531,-0.8876953,0.40039062,-0.84375,-0.25,-0.21875,0.0,0.0,0.0
1696291858249,0.22363281,-0.88378906,0.4140625,-0.09375,-0.125,0.34375,0.0,0.0,0.0
1696291858280,0.23632812,-0.89160156,0.41308594,0.5,-0.0625,0.21875,-17.5625,-72.6875,-200.0
1696291858311,0.234375,-0.89453125,0.4111328,0.375,0.0625,-0.03125,0.0,0.0,0.0
1696291858370,0.22753906,-0.890625,0.4169922,0.125,0.0,-0.15625,0.0,0.0,0.0
1696291858406,0.22167969,-0.8876953,0.4140625,-0.03125,-0.0625,-0.28125,0.0,0.0,0.0
1696291858429,0.22753906,-0.88671875,0.42382812,-0.15625,-0.1875,-0.21875,0.0,0.0,0.0
1696291858488,0.23242188,-0.8886719,0.41015625,-0.15625,-0.1875,-0.03125,0.0,0.0,0.0
1696291858525,0.2265625,-0.88378906,0.41015625,0.03125,0.0,0.03125,0.0,0.0,0.0
1696291858550,0.22558594,-0.88671875,0.4111328,0.0625,0.0625,0.15625,0.0,0.0,0.0
1696291858612,0.23339844,-0.88964844,0.3984375,0.25,0.125,0.09375,0.0,0.0,0.0
1696291858639,0.22558594,-0.88183594,0.40820312,0.125,0.0,-0.09375,0.0,0.0,0.0
1696291858671,0.23144531,-0.88964844,0.4140625,-0.15625,-0.0625,-0.28125,0.0,0.0,0.0
1696291858732,0.22949219,-0.88378906,0.41308594,-0.03125,-0.0625,-0.09375,0.0,0.0,0.0
1696291858758,0.22851562,-0.8925781,0.41503906,0.5,0.0,0.09375,-18.75,-72.125,-200.625
1696291858790,0.23730469,-0.8935547,0.40527344,0.375,-0.0625,0.03125,0.0,0.0,0.0
1696291858849,0.23242188,-0.8876953,0.41210938,-0.84375,-0.125,-0.28125,0.0,0.0,0.0
1696291858878,0.22753906,-0.9003906,0.41503906,-1.09375,-0.1875,0.03125,0.0,0.0,0.0
1696291858908,0.22558594,-0.8847656,0.40527344,-0.09375,-0.09375,0.25,0.0,0.0,0.0
1696291858968,0.22851562,-0.8847656,0.41503906,0.8125,0.15625,0.25,0.0,0.0,0.0
1696291859000,0.22949219,-0.8798828,0.40527344,0.3125,0.21875,-0.0625,0.0,0.0,0.0
1696291859029,0.22460938,-0.8886719,0.42578125,-0.03125,-0.125,-0.0625,0.0,0.0,0.0
1696291859087,0.23730469,-0.8847656,0.4111328,-0.03125,-0.09375,-0.125,0.0,0.0,0.0
1696291859118,0.23339844,-0.88183594,0.41015625,-0.15625,-0.03125,0.0,0.0,0.0,0.0
1696291859149,0.22265625,-0.8798828,0.39453125,-0.34375,0.03125,0.125,0.0,0.0,0.0
1696291859212,0.23339844,-0.88183594,0.4111328,-0.53125,-0.09375,0.0625,0.0,0.0,0.0
1696291859242,0.22070312,-0.8925781,0.40527344,-0.21875,-0.09375,0.1875,0.0,0.0,0.0
1696291859302,0.22851562,-0.890625,0.41503906,-0.09375,-0.03125,-0.125,-17.375,-71.8125,-200.875
1696291859329,0.22753906,-0.8847656,0.40722656,-0.15625,-0.25,-0.3125,0.0,0.0,0.0
1696291859362,0.22949219,-0.8925781,0.4033203,-0.28125,-0.1875,-0.1875,0.0,0.0,0.0
1696291859387,0.24023438,-0.8847656,0.3984375,-0.46875,-0.1875,-0.0625,0.0,0.0,0.0
1696291859447,0.23242188,-0.8964844,0.41210938,0.25,-0.03125,0.0,0.0,0.0,0.0
1696291859484,0.22949219,-0.8935547,0.41503906,0.125,0.09375,0.0,0.0,0.0,0.0
1696291859507,0.22949219,-0.88378906,0.4140625,-0.90625,-0.125,-0.0625,0.0,0.0,0.0
1696291859569,0.22753906,-0.8925781,0.4111328,-1.09375,-0.1875,0.0625,0.0,0.0,0.0
1696291859602,0.23144531,-0.8955078,0.40429688,-0.34375,-0.03125,0.25,0.0,0.0,0.0
1696291859629,0.23144531,-0.890625,0.4111328,0.4375,0.09375,0.0625,0.0,0.0,0.0
1696291859690,0.22851562,-0.90234375,0.4091797,0.125,0.03125,0.0,0.0,0.0,0.0
1696291859723,0.23339844,-0.89453125,0.40820312,-0.03125,-0.3125,-0.125,0.0,0.0,0.0
1696291859750,0.22851562,-0.8857422,0.40234375,-0.15625,-0.125,-0.1875,-18.625,-73.4375,-201.5
1696291859811,0.23339844,-0.8857422,0.4013672,0.03125,0.03125,-0.125,0.0,0.0,0.0
1696291859839,0.23925781,-0.88183594,0.40234375,-0.15625,-0.09375,0.0,0.0,0.0,0.0
1696291859868,0.22851562,-0.890625,0.41015625,-0.65625,-0.125,0.125,0.0,0.0,0.0
1696291859933,0.23144531,-0.8857422,0.40722656,-0.03125,0.09375,0.0625,0.0,0.0,0.0
1696291859963,0.23632812,-0.890625,0.39746094,-0.03125,-0.03125,-0.0625,0.0,0.0,0.0
1696291859988,0.22851562,-0.890625,0.40722656,-0.21875,-0.125,-0.125,0.0,0.0,0.0
1696291860050,0.23242188,-0.8857422,0.40625,-0.28125,-0.09375,-0.125,0.0,0.0,0.0
1696291860081,0.23339844,-0.8935547,0.42089844,-0.03125,-0.09375,-0.125,0.0,0.0,0.0
1696291860107,0.23339844,-0.8925781,0.4169922,0.4375,0.09375,0.0625,0.0,0.0,0.0
1696291860170,0.22949219,-0.88378906,0.41796875,-0.03125,-0.125,-0.1875,0.0,0.0,0.0
1696291860200,0.23046875,-0.8955078,0.41015625,-0.90625,-0.09375,-0.0625,0.0,0.0,0.0
1696291860228,0.22460938,-0.8798828,0.4033203,-0.78125,-0.1875,-0.0625,0.0,0.0,0.0
1696291860288,0.23144531,-0.88183594,0.40820312,0.03125,-0.09375,0.3125,-19.8125,-72.5625,-200.875
1696291860321,0.23339844,-0.8876953,0.41308594,0.375,0.09375,0.0625,0.0,0.0,0.0
1696291860353,0.22851562,-0.8925781,0.42578125,0.0625,0.03125,-0.125,0.0,0.0,0.0
1696291860408,0.23828125,-0.8876953,0.40527344,-0.21875,-0.3125,-0.1875,0.0,0.0,0.0
1696291860450,0.23242188,-0.88964844,0.41210938,-0.03125,-0.09375,-0.1875,0.0,0.0,0.0
1696291860471,0.234375,-0.8857422,0.40234375,0.03125,0.03125,-0.125,0.0,0.0,0.0
1696291860527,0.22851562,-0.8857422,0.41992188,-0.09375,0.03125,0.125,0.0,0.0,0.0
1696291860565,0.22851562,-0.8886719,0.40820312,-0.46875,-0.03125,0.25,0.0,0.0,0.0
1696291860589,0.22363281,-0.88378906,0.41015625,-0.21875,-0.09375,0.1875,0.0,0.0,0.0
1696291860650,0.23144531,-0.88671875,0.41210938,0.03125,-0.03125,0.125,0.0,0.0,0.0
1696291860679,0.23242188,-0.89160156,0.40722656,-0.09375,-0.03125,-0.125,0.0,0.0,0.0
1696291860711,0.23339844,-0.8876953,0.40039062,-0.21875,-0.1875,-0.1875,0.0,0.0,0.0
1696291860768,0.23242188,-0.8828125,0.41601562,0.125,-0.09375,0.0625,-20.5625,-71.0625,-201.625
1696291860799,0.22949219,-0.8847656,0.4248047,0.5625,0.03125,0.0,0.0,0.0,0.0
1696291860828,0.22167969,-0.8886719,0.40234375,0.0625,0.03125,-0.125,0.0,0.0,0.0
1696291860893,0.23632812,-0.88378906,0.41503906,-0.96875,-0.09375,-0.1875,0.0,0.0,0.0
1696291860920,0.23339844,-0.890625,0.4140625,-0.90625,-0.1875,-0.0625,0.0,0.0,0.0
1696291860951,0.22949219,-0.8935547,0.40429688,-0.09375,-0.09375,0.1875,0.0,0.0,0.0
1696291861007,0.22851562,-0.8886719,0.40722656,0.6875,0.09375,0.1875,0.0,0.0,0.0
1696291861038,0.23828125,-0.89941406,0.40722656,-0.03125,-0.09375,-0.125,0.0,0.0,0.0
1696291861067,0.22949219,-0.890625,0.41308594,-0.15625,-0.1875,-0.1875,0.0,0.0,0.0
1696291861128,0.22949219,-0.8847656,0.41796875,0.0625,-0.03125,-0.1875,0.0,0.0,0.0
1696291861158,0.23046875,-0.890625,0.40722656,-0.03125,-0.03125,0.0,0.0,0.0,0.0
1696291861190,0.23339844,-0.890625,0.4013672,-0.15625,0.09375,0.0,0.0,0.0,0.0
1696291861247,0.23144531,-0.88183594,0.40820312,-0.34375,-0.125,0.25,0.0,0.0,0.0
1696291861281,0.234375,-0.89160156,0.40625,0.03125,-0.125,0.125,-18.0,-72.5625,-200.875
1696291861307,0.22558594,-0.8876953,0.40625,0.1875,0.09375,-0.125,0.0,0.0,0.0
1696291861369,0.23046875,-0.89453125,0.40625,0.1875,-0.125,-0.25,0.0,0.0,0.0
1696291861405,0.23925781,-0.89160156,0.40234375,0.0625,-0.03125,-0.25,0.0,0.0,0.0
1696291861431,0.22363281,-0.88671875,0.40722656,0.0625,-0.03125,0.1875,0.0,0.0,0.0
1696291861488,0.23046875,-0.8847656,0.4033203,0.375,-0.03125,0.3125,0.0,0.0,0.0
1696291861521,0.23046875,-0.8847656,0.40039062,0.25,0.03125,-0.125,0.0,0.0,0.0
1696291861582,0.23339844,-0.89453125,0.40722656,-0.5625,-0.0625,-0.1875,0.0,0.0,0.0
1696291861607,0.22851562,-0.89453125,0.40625,-0.875,-0.125,-0.0625,0.0,0.0,0.0
1696291861639,0.22460938,-0.8857422,0.40234375,-0.25,-0.125,0.1875,0.0,0.0,0.0
1696291861669,0.22949219,-0.8857422,0.41210938,0.90625,0.125,0.1875,0.0,0.0,0.0
1696291861733,0.22460938,-0.890625,0.4091797,0.53125,0.0,0.0,0.0,0.0,0.0
1696291861765,0.22949219,-0.890625,0.4189453,0.09375,0.0,-0.125,-19.8125,-71.8125,-200.875
1696291861793,0.23144531,-0.8847656,0.39746094,0.0,-0.1875,-0.25,0.0,0.0,0.0
1696291861854,0.24023438,-0.8779297,0.41210938,0.09375,-0.0625,-0.3125,0.0,0.0,0.0
1696291861879,0.23046875,-0.88964844,0.39941406,0.0625,0.125,-0.125,0.0,0.0,0.0
1696291861912,0.23339844,-0.88671875,0.40625,-0.125,-0.1875,0.1875,0.0,0.0,0.0
1696291861969,0.22558594,-0.8955078,0.40722656,0.09375,0.0625,0.25,0.0,0.0,0.0
1696291861998,0.22851562,-0.8876953,0.40429688,0.09375,0.125,0.125,0.0,0.0,0.0
1696291862030,0.234375,-0.8935547,0.40820312,0.0,-0.125,-0.0625,0.0,0.0,0.0
1696291862090,0.23730469,-0.88378906,0.41308594,-0.1875,-0.0625,-0.1875,0.0,0.0,0.0
1696291862121,0.23339844,-0.88964844,0.4111328,0.0,-0.0625,0.0,0.0,0.0,0.0
1696291862147,0.23242188,-0.88183594,0.41503906,0.46875,0.0625,0.0625,0.0,0.0,0.0
1696291862210,0.22558594,-0.8769531,0.4033203,0.34375,0.125,0.0,0.0,0.0,0.0
1696291862241,0.23046875,-0.8857422,0.39941406,-0.5625,-0.0625,-0.3125,0.0,0.0,0.0
1696291862270,0.23925781,-0.89453125,0.4033203,-0.75,0.0,-0.1875,-17.875,-71.1875,-201.0625
1696291862329,0.23632812,-0.8964844,0.42089844,0.0,0.0,0.25,0.0,0.0,0.0
1696291862361,0.23242188,-0.8847656,0.4091797,0.78125,0.0625,0.125,0.0,0.0,0.0
1696291862391,0.234375,-0.8935547,0.41015625,0.34375,0.0625,0.0,0.0,0.0,0.0
1696291862454,0.22363281,-0.8876953,0.41601562,-0.0625,-0.125,-0.0625,0.0,0.0,0.0
1696291862481,0.22851562,-0.8925781,0.40722656,-0.125,-0.125,-0.0625,0.0,0.0,0.0
1696291862510,0.234375,-0.8798828,0.41308594,0.0,0.0,-0.125,0.0,0.0,0.0
1696291862571,0.23828125,-0.8886719,0.4091797,0.0625,-0.0625,0.0,0.0,0.0,0.0
1696291862602,0.22753906,-0.8847656,0.3984375,-0.125,0.0,0.0625,0.0,0.0,0.0
1696291862627,0.234375,-0.8925781,0.40722656,0.0,0.0,0.125,0.0,0.0,0.0
1696291862688,0.22167969,-0.8828125,0.40625,0.21875,-0.0625,0.0625,0.0,0.0,0.0
1696291862725,0.22753906,-0.8798828,0.42285156,-0.0625,-0.0625,-0.125,0.0,0.0,0.0
1696291862748,0.22949219,-0.8955078,0.41308594,-0.3125,-0.25,-0.0625,-19.9375,-72.25,-201.0625
1696291862841,0.23535156,-0.8808594,0.4033203,-0.125,0.0,-0.0625,0.0,0.0,0.0
1696291862844,0.22851562,-0.8876953,0.4013672,0.28125,0.0625,-0.0625,0.0,0.0,0.0
1696291862871,0.23242188,-0.8886719,0.3955078,-0.125,-0.0625,-0.125,0.0,0.0,0.0
1696291862929,0.22851562,-0.8857422,0.4013672,-0.875,-0.125,-0.1875,0.0,0.0,0.0
1696291862960,0.22949219,-0.8876953,0.40820312,-1.125,-0.28125,-0.1875,0.0,0.0,0.0
1696291862992,0.23339844,-0.8779297,0.4189453,-0.1875,-0.125,0.0,0.0,0.0,0.0
1696291863051,0.22753906,-0.8847656,0.42089844,0.71875,-0.0625,0.25,0.0,0.0,0.0
1696291863080,0.2265625,-0.8857422,0.40234375,0.09375,0.125,0.125,0.0,0.0,0.0
1696291863109,0.22167969,-0.88671875,0.40722656,-0.3125,-0.0625,0.0,0.0,0.0,0.0
1696291863170,0.23144531,-0.88671875,0.40820312,-0.3125,-0.125,-0.375,0.0,0.0,0.0
1696291863200,0.234375,-0.88183594,0.4013672,-0.25,0.0,-0.1875,0.0,0.0,0.0
1696291863228,0.23242188,-0.8828125,0.4091797,0.0625,0.125,0.1875,0.0,0.0,0.0
1696291863290,0.23730469,-0.8828125,0.41015625,-0.3125,-0.1875,0.1875,-18.625,-72.25,-200.4375
1696291863326,0.23046875,-0.8857422,0.3984375,0.0625,-0.0625,0.1875,0.0,0.0,0.0
1696291863348,0.22949219,-0.8876953,0.39648438,0.09375,0.0625,-0.0625,0.0,0.0,0.0
1696291863408,0.23242188,-0.88964844,0.4248047,0.0,0.0,-0.3125,0.0,0.0,0.0
1696291863441,0.23046875,-0.88183594,0.41210938,-0.25,-0.0625,-0.1875,0.0,0.0,0.0
1696291863468,0.23828125,-0.88378906,0.40625,-0.125,0.0,0.0625,0.0,0.0,0.0
1696291863529,0.23144531,-0.8964844,0.41503906,0.34375,0.25,0.0625,0.0,0.0,0.0
1696291863558,0.22460938,-0.8847656,0.4169922,0.28125,0.125,-0.25,0.0,0.0,0.0
1696291863592,0.23632812,-0.8857422,0.40820312,-0.75,-0.0625,-0.125,0.0,0.0,0.0
1696291863652,0.22265625,-0.890625,0.4033203,-1.0,0.0625,-0.0625,0.0,0.0,0.0
1696291863678,0.23339844,-0.890625,0.4033203,0.0,0.0625,0.1875,0.0,0.0,0.0
1696291863709,0.23046875,-0.88671875,0.39160156,0.53125,-0.0625,0.125,0.0,0.0,0.0
1696291863774,0.234375,-0.8886719,0.4169922,0.0625,0.0,0.0,-19.375,-73.0,-201.8125
1696291863799,0.23046875,-0.8925781,0.4033203,-0.1875,0.0,0.0,0.0,0.0,0.0
1696291863862,0.24316406,-0.89160156,0.40820312,0.09375,0.0,-0.125,0.0,0.0,0.0
1696291863888,0.23730469,-0.890625,0.4091797,0.15625,0.0625,0.0625,0.0,0.0,0.0
1696291863921,0.23144531,-0.87890625,0.41308594,-0.0625,0.0625,0.0,0.0,0.0,0.0
1696291863949,0.23925781,-0.89941406,0.4140625,-0.3125,-0.0625,0.1875,0.0,0.0,0.0
1696291864013,0.22851562,-0.89160156,0.41210938,0.0625,0.0625,0.25,0.0,0.0,0.0
1696291864041,0.22363281,-0.890625,0.41210938,0.0625,0.0,0.0,0.0,0.0,0.0
1696291864069,0.22753906,-0.890625,0.40722656,-0.125,0.0,-0.25,0.0,0.0,0.0
1696291864129,0.22558594,-0.8935547,0.40820312,-0.125,-0.0625,-0.125,0.0,0.0,0.0
1696291864159,0.22851562,-0.88378906,0.40625,0.21875,0.0625,0.0625,0.0,0.0,0.0
1696291864192,0.23339844,-0.88964844,0.40234375,0.53125,0.125,0.125,0.0,0.0,0.0
1696291864248,0.22167969,-0.87597656,0.4345703,0.0625,0.0625,-0.0625,0.0,0.0,0.0
1696291864281,0.23632812,-0.89453125,0.39648438,-0.75,-0.0625,-0.3125,-18.0,-72.125,-200.875
1696291864310,0.22949219,-0.88671875,0.39746094,-0.75,-0.0625,-0.125,0.0,0.0,0.0
1696291864369,0.23046875,-0.89941406,0.4033203,0.15625,0.0625,0.125,0.0,0.0,0.0
1696291864398,0.22949219,-0.8857422,0.41503906,0.59375,0.0625,0.1875,0.0,0.0,0.0
1696291864431,0.2421875,-0.890625,0.41308594,0.0625,-0.0625,-0.125,0.0,0.0,0.0
1696291864491,0.22753906,-0.8876953,0.4111328,-0.125,0.0,-0.0625,0.0,0.0,0.0
1696291864521,0.22363281,-0.87890625,0.41503906,0.0625,0.0,-0.0625,0.0,0.0,0.0
1696291864551,0.23046875,-0.8925781,0.41210938,0.15625,0.125,-0.0625,0.0,0.0,0.0
1696291864608,0.234375,-0.89160156,0.40039062,-0.0625,-0.0625,0.0625,0.0,0.0,0.0
1696291864640,0.23242188,-0.8798828,0.40429688,-0.375,-0.0625,0.0625,0.0,0.0,0.0
1696291864668,0.23339844,-0.88964844,0.4033203,0.0625,0.0625,0.125,0.0,0.0,0.0
1696291864733,0.21972656,-0.8808594,0.3984375,0.21875,0.0625,0.0,0.0,0.0,0.0
1696291864765,0.23339844,-0.89453125,0.40820312,0.0,0.0,-0.1875,-18.0,-71.8125,-201.1875
1696291864788,0.23242188,-0.8828125,0.41308594,-0.1875,-0.0625,-0.25,0.0,0.0,0.0
1696291864882,0.23144531,-0.88183594,0.39941406,0.15625,0.0625,-0.1875,0.0,0.0,0.0
1696291864886,0.22753906,-0.890625,0.39648438,0.59375,0.0,0.0625,0.0,0.0,0.0
1696291864907,0.22949219,-0.88183594,0.40039062,0.40625,0.0625,0.0625,0.0,0.0,0.0
1696291864970,0.23339844,-0.890625,0.4091797,-0.4375,0.0,-0.1875,0.0,0.0,0.0
1696291865001,0.23046875,-0.890625,0.40234375,-0.5,-0.0625,0.125,0.0,0.0,0.0
1696291865030,0.234375,-0.890625,0.41210938,0.09375,0.0625,0.125,0.0,0.0,0.0
1696291865088,0.24511719,-0.8876953,0.4140625,0.84375,0.125,-0.0625,0.0,0.0,0.0
1696291865121,0.22949219,-0.8925781,0.4013672,0.09375,0.125,-0.3125,0.0,0.0,0.0
1696291865148,0.22070312,-0.8886719,0.40234375,0.09375,0.125,0.0,0.0,0.0,0.0
1696291865218,0.22753906,-0.88183594,0.40625,0.40625,0.125,-0.125,0.0,0.0,0.0
1696291865243,0.23339844,-0.8886719,0.4033203,0.28125,0.125,-0.0625,0.0,0.0,0.0
1696291865269,0.22753906,-0.89453125,0.40234375,0.0625,0.125,-0.125,-18.75,-71.8125,-201.625
1696291865329,0.23144531,-0.8886719,0.40527344,-0.1875,0.0,0.0,0.0,0.0,0.0
1696291865358,0.23339844,-0.88964844,0.40234375,0.0625,0.125,0.125,0.0,0.0,0.0
1696291865392,0.23535156,-0.88183594,0.40820312,0.28125,0.0625,0.0,0.0,0.0,0.0
1696291865448,0.23046875,-0.88671875,0.40625,0.15625,0.0625,-0.125,0.0,0.0,0.0
1696291865480,0.23632812,-0.8876953,0.4140625,0.0,-0.0625,-0.0625,0.0,0.0,0.0
1696291865508,0.24609375,-0.88671875,0.40820312,0.15625,0.125,-0.0625,0.0,0.0,0.0
1696291865573,0.23632812,-0.88671875,0.4111328,0.65625,0.25,0.1875,0.0,0.0,0.0
1696291865601,0.23144531,-0.8857422,0.42285156,0.28125,0.0,-0.125,0.0,0.0,0.0
1696291865631,0.23242188,-0.88964844,0.4111328,-0.5,0.0625,-0.3125,0.0,0.0,0.0
1696291865688,0.23144531,-0.88671875,0.41015625,-0.625,0.0,-0.1875,0.0,0.0,0.0
1696291865720,0.23339844,-0.8847656,0.40527344,0.28125,0.125,0.1875,0.0,0.0,0.0
1696291865748,0.23339844,-0.8925781,0.40625,0.71875,0.0625,0.25,-17.6875,-72.875,-198.5
1696291865812,0.23632812,-0.8886719,0.421875,0.09375,0.0625,-0.0625,0.0,0.0,0.0
1696291865845,0.23339844,-0.8886719,0.41601562,0.0,-0.125,-0.1875,0.0,0.0,0.0
1696291865868,0.23144531,-0.8876953,0.40039062,0.0625,0.0,-0.25,0.0,0.0,0.0
1696291865929,0.23144531,-0.89160156,0.43066406,0.09375,0.0625,-0.0625,0.0,0.0,0.0
1696291865959,0.24023438,-0.8886719,0.4091797,0.0625,0.0625,-0.0625,0.0,0.0,0.0
1696291865987,0.21972656,-0.8779297,0.41796875,-0.1875,0.0,0.125,0.0,0.0,0.0
1696291866048,0.22949219,-0.8935547,0.40234375,0.0625,0.125,0.1875,0.0,0.0,0.0
1696291866078,0.22949219,-0.8925781,0.4248047,0.28125,0.125,0.0625,0.0,0.0,0.0
1696291866146,0.22949219,-0.8886719,0.40625,0.0,-0.1875,-0.25,0.0,0.0,0.0
1696291866168,0.234375,-0.8828125,0.39648438,-0.1875,-0.1875,-0.1875,0.0,0.0,0.0
1696291866201,0.23535156,-0.8798828,0.40429688,0.0625,0.0,-0.0625,0.0,0.0,0.0
1696291866228,0.22753906,-0.8925781,0.40625,0.59375,0.1875,0.1875,0.0,0.0,0.0
1696291866293,0.22558594,-0.88183594,0.3984375,0.0,0.1875,-0.125,-17.875,-73.75,-200.0
1696291866324,0.23632812,-0.8876953,0.41503906,-0.625,0.0625,-0.1875,0.0,0.0,0.0
1696291866350,0.23828125,-0.8876953,0.41210938,-0.4375,0.0625,0.125,0.0,0.0,0.0
1696291866409,0.234375,-0.8886719,0.3984375,0.28125,0.125,0.375,0.0,0.0,0.0
1696291866443,0.22753906,-0.8886719,0.421875,0.46875,0.125,0.25,0.0,0.0,0.0
1696291866471,0.23046875,-0.8886719,0.421875,-0.375,0.1875,-0.1875,0.0,0.0,0.0
1696291866528,0.22753906,-0.8847656,0.40722656,-0.4375,-0.125,-0.3125,0.0,0.0,0.0
1696291866559,0.23339844,-0.8925781,0.4111328,-0.1875,-0.0625,-0.375,0.0,0.0,0.0
1696291866588,0.2265625,-0.8935547,0.40625,0.21875,0.1875,-0.1875,0.0,0.0,0.0
1696291866618,0.234375,-0.890625,0.40527344,0.28125,0.0625,0.0625,0.0,0.0,0.0
1696291866683,0.22949219,-0.88378906,0.40820312,-0.1875,-0.0625,0.125,0.0,0.0,0.0
1696291866711,0.22851562,-0.8847656,0.41503906,0.0,0.0,0.1875,0.0,0.0,0.0
1696291866771,0.22558594,-0.8925781,0.41015625,0.1875,0.0625,0.0625,-18.3125,-70.9375,-201.0625
1696291866801,0.23144531,-0.88671875,0.41308594,-0.5,-0.125,-0.125,0.0,0.0,0.0
1696291866827,0.23144531,-0.8876953,0.40820312,-0.5625,0.0,-0.1875,0.0,0.0,0.0
1696291866887,0.23339844,-0.8857422,0.40625,0.25,0.0,0.0625,0.0,0.0,0.0
1696291866922,0.23535156,-0.890625,0.4033203,0.59375,0.0,0.0625,0.0,0.0,0.0
1696291866950,0.22851562,-0.88964844,0.4111328,0.25,0.0,-0.0625,0.0,0.0,0.0
1696291866980,0.22851562,-0.87890625,0.40820312,-0.6875,-0.125,-0.28125,0.0,0.0,0.0
1696291867038,0.23046875,-0.8886719,0.40527344,-1.09375,-0.1875,-0.125,0.0,0.0,0.0
1696291867069,0.22460938,-0.8847656,0.4111328,-0.25,0.0,0.0625,0.0,0.0,0.0
1696291867101,0.23144531,-0.89453125,0.39160156,0.59375,0.0,0.25,0.0,0.0,0.0
1696291867168,0.22558594,-0.89160156,0.40527344,0.0625,0.0,-0.125,0.0,0.0,0.0
1696291867188,0.22949219,-0.8808594,0.4013672,-0.125,-0.0625,-0.125,0.0,0.0,0.0
1696291867218,0.2265625,-0.88671875,0.4013672,-0.125,-0.0625,-0.1875,0.0,0.0,0.0
1696291867278,0.23046875,-0.8847656,0.41015625,0.0625,0.0625,-0.0625,-17.375,-71.375,-201.1875
1696291867313,0.23242188,-0.8964844,0.40625,0.0,0.0,0.0,0.0,0.0,0.0
1696291867338,0.23339844,-0.890625,0.41210938,-0.375,0.0,0.1875,0.0,0.0,0.0
1696291867399,0.23632812,-0.89941406,0.40234375,-0.1875,0.0,0.1875,0.0,0.0,0.0
1696291867430,0.23828125,-0.88378906,0.4140625,0.0,0.125,-0.0625,0.0,0.0,0.0
1696291867458,0.22363281,-0.88378906,0.40820312,0.0625,-0.0625,-0.28125,0.0,0.0,0.0
1696291867522,0.234375,-0.890625,0.40039062,-0.1875,-0.1875,-0.125,0.0,0.0,0.0
1696291867548,0.23046875,-0.88671875,0.39648438,-0.0625,-0.1875,0.0625,0.0,0.0,0.0
1696291867581,0.23144531,-0.88378906,0.40429688,0.375,0.0,0.1875,0.0,0.0,0.0
1696291867643,0.23242188,-0.87890625,0.39941406,0.1875,-0.0625,0.0,0.0,0.0,0.0
1696291867670,0.23535156,-0.8847656,0.41992188,-0.6875,-0.125,-0.1875,0.0,0.0,0.0
1696291867702,0.23144531,-0.8886719,0.40820312,-1.03125,-0.125,-0.125,0.0,0.0,0.0
1696291867766,0.23144531,-0.8876953,0.4169922,-0.3125,0.0,0.0625,-18.0,-72.125,-203.0
1696291867789,0.23925781,-0.8847656,0.4111328,0.59375,0.1875,0.1875,0.0,0.0,0.0
1696291867820,0.22851562,-0.8925781,0.41210938,0.25,-0.0625,-0.0625,0.0,0.0,0.0
1696291867879,0.23828125,-0.890625,0.40722656,-0.0625,-0.1875,-0.1875,0.0,0.0,0.0
1696291867909,0.23242188,-0.8886719,0.40527344,0.0,-0.0625,-0.25,0.0,0.0,0.0
1696291867938,0.234375,-0.8876953,0.39257812,0.0625,0.0,-0.125,0.0,0.0,0.0
1696291867999,0.23144531,-0.8876953,0.421875,0.0,0.125,-0.0625,0.0,0.0,0.0
1696291868031,0.23535156,-0.8925781,0.4111328,-0.375,-0.0625,0.0625,0.0,0.0,0.0
1696291868063,0.22949219,-0.87890625,0.40527344,-0.1875,-0.0625,0.0625,0.0,0.0,0.0
1696291868131,0.23144531,-0.8886719,0.4169922,0.125,0.0,0.0,0.0,0.0,0.0
1696291868148,0.22558594,-0.890625,0.40039062,0.25,0.125,-0.1875,0.0,0.0,0.0
1696291868181,0.22851562,-0.8886719,0.40820312,-0.125,-0.125,-0.25,0.0,0.0,0.0
1696291868240,0.24121094,-0.8964844,0.41308594,0.0,0.0625,0.0,0.0,0.0,0.0
1696291868269,0.23535156,-0.8808594,0.41015625,0.5,0.0625,0.25,-19.5,-72.125,-199.875
1696291868298,0.22265625,-0.88671875,0.41796875,0.78125,0.0625,0.375,0.0,0.0,0.0
1696291868359,0.22558594,-0.8828125,0.41015625,0.25,0.0625,-0.125,0.0,0.0,0.0
1696291868421,0.22949219,-0.87890625,0.39746094,-0.84375,-0.125,-0.53125,0.0,0.0,0.0
1696291868425,0.23242188,-0.890625,0.39746094,-0.75,-0.125,-0.25,0.0,0.0,0.0
1696291868478,0.23144531,-0.89453125,0.41210938,0.0625,0.0,0.4375,0.0,0.0,0.0
1696291868509,0.23144531,-0.88671875,0.3955078,0.65625,0.125,0.375,0.0,0.0,0.0
1696291868538,0.22558594,-0.8828125,0.41992188,0.1875,0.0625,0.125,0.0,0.0,0.0
1696291868600,0.23144531,-0.88964844,0.40722656,-0.0625,-0.0625,-0.125,0.0,0.0,0.0
1696291868628,0.23730469,-0.88378906,0.40820312,0.0625,0.0625,-0.28125,0.0,0.0,0.0
1696291868659,0.23046875,-0.88671875,0.4169922,0.3125,0.0,-0.28125,0.0,0.0,0.0
1696291868719,0.23632812,-0.8779297,0.40820312,-0.125,-0.0625,0.0,0.0,0.0,0.0
1696291868754,0.23046875,-0.88671875,0.40625,0.0,0.0,0.25,-17.6875,-71.0625,-199.875
1696291868779,0.234375,-0.8925781,0.4111328,0.25,0.125,0.3125,0.0,0.0,0.0
1696291868841,0.23046875,-0.8925781,0.41503906,0.3125,0.0625,0.1875,0.0,0.0,0.0
1696291868874,0.21777344,-0.8935547,0.421875,-0.0625,-0.125,-0.0625,0.0,0.0,0.0
1696291868901,0.23339844,-0.8876953,0.41308594,-0.25,-0.0625,-0.25,0.0,0.0,0.0
1696291868960,0.23242188,-0.8925781,0.40722656,0.0,-0.0625,-0.1875,0.0,0.0,0.0
1696291868988,0.23632812,-0.8886719,0.41015625,0.5625,0.125,0.125,0.0,0.0,0.0
1696291869018,0.22460938,-0.88671875,0.40722656,0.78125,0.0625,0.0625,0.0,0.0,0.0
1696291869086,0.23242188,-0.8935547,0.41503906,-0.4375,-0.0625,-0.25,0.0,0.0,0.0
1696291869115,0.23144531,-0.8798828,0.40039062,-0.96875,-0.0625,-0.125,0.0,0.0,0.0
1696291869170,0.22363281,-0.88183594,0.40625,-0.25,0.0625,0.1875,0.0,0.0,0.0
1696291869199,0.22460938,-0.88964844,0.4140625,0.5625,0.0,0.375,0.0,0.0,0.0
1696291869230,0.23144531,-0.88183594,0.4189453,0.4375,0.0625,0.0625,0.0,0.0,0.0
1696291869259,0.23339844,-0.87890625,0.41601562,-0.0625,-0.1875,-0.125,-19.9375,-71.6875,-200.75
1696291869325,0.23730469,-0.8886719,0.40039062,-0.125,-0.125,-0.0625,0.0,0.0,0.0
1696291869348,0.22558594,-0.88378906,0.41210938,0.0625,0.0625,-0.0625,0.0,0.0,0.0
1696291869383,0.23242188,-0.8798828,0.40039062,-0.03125,0.0,-0.1875,0.0,0.0,0.0
1696291869443,0.234375,-0.8847656,0.4013672,-0.1875,0.0,0.0,0.0,0.0,0.0
1696291869471,0.23339844,-0.8886719,0.3984375,-0.25,-0.0625,0.125,0.0,0.0,0.0
1696291869499,0.23632812,-0.8935547,0.40527344,0.15625,-0.0625,0.125,0.0,0.0,0.0
1696291869562,0.234375,-0.87890625,0.41503906,-0.03125,-0.125,-0.25,0.0,0.0,0.0
1696291869593,0.23730469,-0.8847656,0.4169922,-0.125,-0.125,-0.1875,0.0,0.0,0.0
1696291869618,0.23535156,-0.87890625,0.40820312,0.03125,-0.0625,0.0625,0.0,0.0,0.0
1696291869682,0.23046875,-0.88378906,0.39941406,0.28125,0.03125,0.1875,0.0,0.0,0.0
1696291869711,0.22753906,-0.8847656,0.43164062,0.53125,0.03125,0.0625,0.0,0.0,0.0
1696291869738,0.23730469,-0.89453125,0.4013672,-0.75,0.0,-0.1875,-18.4375,-71.375,-200.3125
1696291869800,0.23242188,-0.88183594,0.41015625,-1.46875,-0.125,0.0,0.0,0.0,0.0
1696291869828,0.22949219,-0.8955078,0.4111328,-0.6875,-0.0625,0.0,0.0,0.0,0.0
1696291869861,0.22851562,-0.8925781,0.41503906,0.09375,0.09375,0.0,0.0,0.0,0.0
1696291869920,0.23046875,-0.8876953,0.43066406,0.34375,0.03125,0.0625,0.0,0.0,0.0
1696291869950,0.22851562,-0.88671875,0.4111328,-0.125,-0.1875,0.0,0.0,0.0,0.0
1696291869981,0.22558594,-0.88671875,0.40625,-0.25,-0.1875,-0.0625,0.0,0.0,0.0
1696291870040,0.23535156,-0.8857422,0.4169922,-0.25,0.0,-0.125,0.0,0.0,0.0
1696291870071,0.22363281,-0.8857422,0.40625,-0.125,-0.0625,-0.25,0.0,0.0,0.0
1696291870099,0.23242188,-0.89453125,0.41503906,-0.09375,0.03125,-0.0625,0.0,0.0,0.0
1696291870159,0.24609375,-0.8828125,0.40625,-0.1875,0.0,0.3125,0.0,0.0,0.0
1696291870189,0.23046875,-0.88671875,0.40722656,-0.375,-0.0625,0.125,0.0,0.0,0.0
1696291870219,0.23144531,-0.89160156,0.40234375,-0.09375,0.03125,-0.125,0.0,0.0,0.0
1696291870281,0.22949219,-0.89160156,0.40429688,-0.125,-0.0625,-0.25,-18.3125,-72.25,-201.0625
1696291870317,0.23339844,-0.89453125,0.40039062,-0.1875,-0.1875,0.0,0.0,0.0,0.0
1696291870339,0.234375,-0.8828125,0.40625,-0.03125,0.03125,0.125,0.0,0.0,0.0
1696291870401,0.22363281,-0.8857422,0.40429688,0.46875,0.03125,0.0625,0.0,0.0,0.0
1696291870428,0.22851562,-0.8857422,0.4140625,-0.375,0.0,-0.1875,0.0,0.0,0.0
1696291870460,0.22167969,-0.87597656,0.40234375,-1.0,-0.1875,-0.25,0.0,0.0,0.0
1696291870522,0.23046875,-0.89453125,0.4033203,-0.6875,0.03125,-0.0625,0.0,0.0,0.0
1696291870557,0.22070312,-0.8925781,0.41015625,0.15625,0.09375,0.3125,0.0,0.0,0.0
1696291870580,0.22949219,-0.8876953,0.4033203,0.28125,0.0,0.25,0.0,0.0,0.0
1696291870639,0.234375,-0.8876953,0.41210938,-0.09375,0.03125,-0.0625,0.0,0.0,0.0
1696291870701,0.22167969,-0.8886719,0.41210938,-0.25,-0.1875,-0.125,0.0,0.0,0.0
1696291870703,0.23046875,-0.8828125,0.40234375,-0.25,-0.25,-0.25,0.0,0.0,0.0
1696291870764,0.22460938,-0.8828125,0.40820312,-0.125,-0.0625,-0.0625,-18.625,-71.9375,-200.4375
1696291870798,0.22558594,-0.890625,0.40527344,-0.1875,0.0,0.0625,0.0,0.0,0.0
1696291870826,0.23535156,-0.890625,0.421875,-0.25,0.0,0.1875,0.0,0.0,0.0
1696291870880,0.22558594,-0.8857422,0.39648438,-0.125,0.09375,0.0625,0.0,0.0,0.0
1696291870908,0.23144531,-0.8847656,0.42089844,0.03125,0.03125,-0.125,0.0,0.0,0.0
1696291870942,0.22851562,-0.8935547,0.4140625,-0.09375,0.03125,-0.3125,0.0,0.0,0.0
1696291870998,0.23632812,-0.88378906,0.3876953,-0.3125,-0.3125,-0.0625,0.0,0.0,0.0
1696291871030,0.22070312,-0.8857422,0.41015625,-0.09375,0.03125,0.0625,0.0,0.0,0.0
1696291871059,0.23144531,-0.87597656,0.39648438,0.40625,0.03125,0.0625,0.0,0.0,0.0
1696291871122,0.22558594,-0.8828125,0.39746094,-0.125,-0.125,0.0,0.0,0.0,0.0
1696291871150,0.23339844,-0.8876953,0.40527344,-1.0625,-0.125,-0.1875,0.0,0.0,0.0
1696291871182,0.22558594,-0.88671875,0.40722656,-0.8125,0.0,-0.0625,0.0,0.0,0.0
1696291871239,0.22851562,-0.890625,0.40234375,-0.03125,-0.0625,0.1875,0.0,0.0,0.0
1696291871273,0.23339844,-0.890625,0.40820312,0.53125,0.0,0.1875,-19.375,-71.9375,-201.0625
1696291871298,0.22949219,-0.8876953,0.4033203,-0.125,-0.125,-0.0625,0.0,0.0,0.0
1696291871367,0.23925781,-0.89746094,0.40625,-0.3125,-0.1875,-0.0625,0.0,0.0,0.0
1696291871391,0.23828125,-0.88183594,0.41015625,0.03125,-0.1875,-0.1875,0.0,0.0,0.0
1696291871456,0.23535156,-0.8935547,0.40722656,0.15625,0.09375,-0.25,0.0,0.0,0.0
1696291871489,0.23046875,-0.8828125,0.4033203,-0.4375,-0.3125,-0.625,0.0,0.0,0.0
1696291871509,0.22851562,-0.89746094,0.3984375,-0.09375,0.0,0.1875,0.0,0.0,0.0
1696291871541,0.23730469,-0.89453125,0.41210938,0.59375,-0.0625,0.71875,0.0,0.0,0.0
1696291871603,0.23144531,-0.88671875,0.4169922,0.28125,-0.125,0.46875,0.0,0.0,0.0
1696291871629,0.22460938,-0.8828125,0.41015625,-0.25,-0.1875,-0.125,0.0,0.0,0.0
1696291871659,0.234375,-0.8955078,0.41796875,-0.375,-0.125,-0.5,0.0,0.0,0.0
1696291871721,0.23046875,-0.8925781,0.41308594,-0.1875,-0.125,-0.3125,0.0,0.0,0.0
1696291871748,0.22753906,-0.88378906,0.4169922,0.71875,-0.1875,0.125,-16.625,-72.125,-200.625
1696291871778,0.22949219,-0.8935547,0.41015625,0.65625,-0.1875,0.0625,0.0,0.0,0.0
1696291871844,0.23925781,-0.88671875,0.4248047,-1.0625,-0.0625,0.0,0.0,0.0,0.0
1696291871869,0.22949219,-0.88378906,0.40429688,-0.6875,0.0,0.0,0.0,0.0,0.0
1696291871898,0.23242188,-0.89746094,0.40722656,0.34375,0.0,0.0625,0.0,0.0,0.0
1696291871958,0.23339844,-0.8828125,0.41601562,0.59375,-0.125,0.125,0.0,0.0,0.0
1696291871992,0.22949219,-0.8798828,0.40625,-0.3125,-0.0625,-0.0625,0.0,0.0,0.0
1696291872018,0.22851562,-0.8964844,0.4111328,-0.1875,-0.125,0.125,0.0,0.0,0.0
1696291872082,0.23535156,-0.8876953,0.40234375,0.53125,-0.1875,-0.0625,0.0,0.0,0.0
1696291872108,0.2265625,-0.8798828,0.4169922,0.25,0.0,-0.0625,0.0,0.0,0.0
1696291872139,0.23339844,-0.8955078,0.41601562,-0.125,0.0625,-0.1875,0.0,0.0,0.0
1696291872205,0.2265625,-0.88671875,0.41210938,-0.3125,-0.25,0.0,0.0,0.0,0.0
1696291872229,0.234375,-0.8847656,0.41210938,-0.0625,-0.125,0.125,0.0,0.0,0.0
1696291872267,0.23339844,-0.8828125,0.4169922,0.1875,0.0625,0.125,-18.0,-72.125,-200.875
1696291872319,0.23144531,-0.8769531,0.40820312,0.0,0.0,0.125,0.0,0.0,0.0
1696291872348,0.21875,-0.8886719,0.40820312,-0.0625,-0.0625,-0.1875,0.0,0.0,0.0
1696291872378,0.23828125,-0.8876953,0.40527344,0.0625,-0.125,0.0625,0.0,0.0,0.0
1696291872440,0.23242188,-0.87597656,0.4033203,0.3125,0.0,0.0,0.0,0.0,0.0
1696291872472,0.23339844,-0.8955078,0.4033203,0.1875,0.125,0.0625,0.0,0.0,0.0
1696291872499,0.22851562,-0.8828125,0.41308594,-0.5,-0.125,-0.25,0.0,0.0,0.0
1696291872563,0.24121094,-0.8964844,0.40234375,-0.625,-0.1875,0.125,0.0,0.0,0.0
1696291872589,0.23339844,-0.8876953,0.40722656,0.25,0.0625,0.28125,0.0,0.0,0.0
1696291872621,0.22558594,-0.8828125,0.41992188,0.53125,0.0625,0.21875,0.0,0.0,0.0
1696291872682,0.23046875,-0.88964844,0.41992188,-0.125,-0.1875,-0.1875,0.0,0.0,0.0
1696291872734,0.23339844,-0.88964844,0.4033203,-0.5625,-0.125,-0.25,0.0,0.0,0.0
1696291872744,0.234375,-0.8798828,0.390625,-0.1875,0.0,-0.1875,-19.0625,-72.125,-201.1875
1696291872799,0.23144531,-0.88964844,0.4111328,-0.0625,-0.0625,0.0625,0.0,0.0,0.0
1696291872834,0.24121094,-0.8798828,0.40820312,-0.0625,-0.125,0.125,0.0,0.0,0.0
1696291872860,0.22460938,-0.8847656,0.39257812,-0.375,-0.1875,0.21875,0.0,0.0,0.0
1696291872922,0.22949219,-0.89746094,0.41308594,-0.1875,-0.1875,0.125,0.0,0.0,0.0
1696291872978,0.22265625,-0.8886719,0.41308594,0.3125,0.125,-0.1875,0.0,0.0,0.0
1696291872981,0.22753906,-0.88183594,0.40527344,-0.1875,-0.125,-0.25,0.0,0.0,0.0
1696291873039,0.23144531,-0.88671875,0.4091797,-0.3125,-0.125,0.0625,0.0,0.0,0.0
1696291873069,0.23046875,-0.8935547,0.41015625,0.25,0.0625,0.1875,0.0,0.0,0.0
1696291873101,0.22949219,-0.8935547,0.41503906,0.4375,0.125,0.125,0.0,0.0,0.0
1696291873167,0.23242188,-0.8857422,0.40527344,-0.375,0.0,-0.25,0.0,0.0,0.0
1696291873190,0.23339844,-0.8886719,0.40527344,-0.90625,-0.125,-0.25,0.0,0.0,0.0
1696291873220,0.23730469,-0.8857422,0.40722656,-0.6875,0.0,-0.0625,0.0,0.0,0.0
1696291873281,0.23144531,-0.8925781,0.4013672,0.0625,0.25,0.21875,-17.125,-73.0,-200.75
1696291873309,0.21777344,-0.8847656,0.41015625,0.46875,0.125,0.0625,0.0,0.0,0.0
1696291873343,0.234375,-0.8857422,0.4189453,0.0,-0.0625,-0.0625,0.0,0.0,0.0
1696291873399,0.23339844,-0.8857422,0.41601562,-0.25,-0.125,-0.125,0.0,0.0,0.0
1696291873429,0.23144531,-0.88671875,0.40820312,-0.0625,-0.125,-0.25,0.0,0.0,0.0
1696291873459,0.23339844,-0.8798828,0.3876953,-0.0625,0.0,-0.125,0.0,0.0,0.0
1696291873521,0.22558594,-0.8847656,0.40820312,-0.0625,0.1875,-0.0625,0.0,0.0,0.0
1696291873548,0.22949219,-0.8935547,0.40039062,-0.375,-0.125,0.21875,0.0,0.0,0.0
1696291873580,0.22753906,-0.8857422,0.4169922,-0.0625,-0.0625,0.21875,0.0,0.0,0.0
1696291873643,0.22753906,-0.88964844,0.41503906,-0.0625,0.0625,-0.0625,0.0,0.0,0.0
1696291873677,0.234375,-0.89941406,0.41015625,-0.1875,-0.125,-0.25,0.0,0.0,0.0
1696291873731,0.23144531,-0.88671875,0.4013672,-0.0625,-0.1875,-0.125,0.0,0.0,0.0
1696291873761,0.24121094,-0.88183594,0.39941406,0.25,-0.0625,0.0,0.0,0.0,0.0
1696291873790,0.24609375,-0.8955078,0.4013672,0.3125,0.0625,0.125,-18.4375,-72.125,-201.1875
1696291873824,0.22753906,-0.8935547,0.4140625,-0.125,-0.0625,-0.125,0.0,0.0,0.0
1696291873880,0.22949219,-0.88378906,0.41503906,-0.75,-0.0625,-0.125,0.0,0.0,0.0
1696291873909,0.23046875,-0.8876953,0.3955078,-0.8125,-0.25,-0.125,0.0,0.0,0.0
1696291873939,0.234375,-0.8847656,0.421875,-0.125,0.0,0.1875,0.0,0.0,0.0
1696291874005,0.23242188,-0.8847656,0.39941406,0.53125,0.0,0.125,0.0,0.0,0.0
1696291874027,0.234375,-0.87890625,0.4140625,0.1875,-0.0625,-0.0625,0.0,0.0,0.0
1696291874061,0.22851562,-0.890625,0.38964844,-0.1875,-0.1875,-0.0625,0.0,0.0,0.0
1696291874120,0.23144531,-0.8925781,0.41308594,0.125,0.0625,-0.125,0.0,0.0,0.0
1696291874152,0.23828125,-0.8876953,0.421875,0.0625,0.0,0.0,0.0,0.0,0.0
1696291874181,0.23632812,-0.890625,0.4111328,-0.25,-0.1875,0.0,0.0,0.0,0.0
1696291874245,0.23925781,-0.8935547,0.3935547,-0.5625,-0.0625,0.125,0.0,0.0,0.0
1696291874278,0.22851562,-0.8876953,0.4033203,0.0625,0.0625,0.125,-18.625,-71.9375,-199.375
1696291874301,0.23339844,-0.88378906,0.40722656,0.3125,0.25,0.0,0.0,0.0,0.0
1696291874359,0.22949219,-0.8886719,0.41992188,0.125,-0.0625,-0.3125,0.0,0.0,0.0
1696291874389,0.22753906,-0.87890625,0.3984375,-0.0625,-0.0625,-0.25,0.0,0.0,0.0
1696291874417,0.23242188,-0.8876953,0.41796875,0.3125,0.0625,0.0,0.0,0.0,0.0
1696291874483,0.22558594,-0.88671875,0.40527344,0.53125,0.125,0.28125,0.0,0.0,0.0
1696291874508,0.22363281,-0.8876953,0.41796875,0.46875,0.125,0.0,0.0,0.0,0.0
1696291874540,0.23339844,-0.8955078,0.4140625,-0.375,0.0,-0.1875,0.0,0.0,0.0
1696291874603,0.22949219,-0.8876953,0.4169922,-0.75,-0.125,-0.125,0.0,0.0,0.0
1696291874629,0.23144531,-0.89453125,0.39746094,-0.1875,-0.125,0.125,0.0,0.0,0.0
1696291874657,0.2265625,-0.89160156,0.41015625,0.8125,0.0625,0.25,0.0,0.0,0.0
1696291874722,0.23339844,-0.88671875,0.40527344,0.4375,0.0625,0.0625,0.0,0.0,0.0
1696291874754,0.22558594,-0.8925781,0.40820312,0.125,0.0,-0.0625,0.0,0.0,0.0
1696291874782,0.234375,-0.87890625,0.39160156,0.0,-0.125,-0.1875,-18.3125,-70.625,-199.6875
1696291874842,0.22851562,-0.890625,0.4111328,0.1875,0.0625,-0.3125,0.0,0.0,0.0
1696291874873,0.22949219,-0.8779297,0.4013672,0.0,0.0,-0.0625,0.0,0.0,0.0
1696291874899,0.23144531,-0.8876953,0.40722656,-0.09375,-0.0625,0.1875,0.0,0.0,0.0
1696291874959,0.23535156,-0.89160156,0.41308594,0.3125,0.0625,0.25,0.0,0.0,0.0
1696291874992,0.22753906,-0.88183594,0.40820312,0.375,0.0625,0.0625,0.0,0.0,0.0
1696291875019,0.23242188,-0.8828125,0.40527344,0.0625,0.0,-0.125,0.0,0.0,0.0
1696291875078,0.22363281,-0.8847656,0.39941406,-0.0625,-0.0625,-0.1875,0.0,0.0,0.0
1696291875112,0.23339844,-0.88378906,0.41015625,0.0,-0.0625,-0.125,0.0,0.0,0.0
1696291875138,0.23242188,-0.88671875,0.3955078,0.1875,0.0625,0.0625,0.0,0.0,0.0
1696291875199,0.22753906,-0.89160156,0.41503906,0.75,0.0625,0.0625,0.0,0.0,0.0
1696291875266,0.22363281,-0.8857422,0.4296875,-0.21875,-0.0625,-0.125,0.0,0.0,0.0
1696291875269,0.23046875,-0.8886719,0.4189453,-0.78125,0.0,-0.125,-18.0,-70.3125,-199.875
1696291875318,0.22363281,-0.8925781,0.40527344,-0.15625,-0.0625,-0.125,0.0,0.0,0.0
1696291875348,0.22949219,-0.8847656,0.41601562,0.625,0.0625,0.1875,0.0,0.0,0.0
1696291875380,0.23535156,-0.8925781,0.4111328,0.625,0.0,0.0625,0.0,0.0,0.0
1696291875468,0.23144531,-0.8779297,0.40625,0.0,0.0625,-0.0625,0.0,0.0,0.0
1696291875470,0.22949219,-0.8876953,0.4140625,0.0,-0.0625,-0.0625,0.0,0.0,0.0
1696291875505,0.24023438,-0.8847656,0.3984375,-0.0625,-0.0625,-0.125,0.0,0.0,0.0
1696291875561,0.23632812,-0.88671875,0.4111328,-0.0625,0.0,-0.125,0.0,0.0,0.0
1696291875590,0.22949219,-0.890625,0.40722656,-0.15625,-0.0625,0.125,0.0,0.0,0.0
1696291875619,0.22753906,-0.890625,0.40820312,-0.09375,-0.0625,0.1875,0.0,0.0,0.0
1696291875647,0.2265625,-0.8847656,0.3857422,0.125,0.0625,0.3125,0.0,0.0,0.0
1696291875708,0.22949219,-0.8828125,0.41308594,0.125,0.0,-0.0625,0.0,0.0,0.0
1696291875742,0.23730469,-0.8886719,0.41015625,-0.09375,0.0625,-0.1875,0.0,0.0,0.0
1696291875800,0.23925781,-0.8935547,0.40625,-0.0625,-0.0625,-0.1875,-18.625,-71.9375,-199.6875
1696291875831,0.22851562,-0.8935547,0.3984375,0.0625,0.0625,0.0625,0.0,0.0,0.0
1696291875858,0.23144531,-0.8828125,0.42285156,0.625,0.125,0.0625,0.0,0.0,0.0
1696291875888,0.22070312,-0.8935547,0.42578125,-0.65625,-0.0625,-0.125,0.0,0.0,0.0
1696291875951,0.23339844,-0.8886719,0.40820312,-1.15625,-0.125,-0.3125,0.0,0.0,0.0
1696291876007,0.234375,-0.8798828,0.4013672,-0.46875,-0.125,0.0625,0.0,0.0,0.0
1696291876010,0.22753906,-0.890625,0.40527344,0.125,0.125,0.25,0.0,0.0,0.0
1696291876074,0.22851562,-0.89160156,0.41992188,0.1875,-0.1875,-0.25,0.0,0.0,0.0
1696291876108,0.23730469,-0.8847656,0.4111328,-0.21875,-0.125,-0.4375,0.0,0.0,0.0
1696291876128,0.23828125,-0.89453125,0.40039062,-0.28125,-0.1875,-0.25,0.0,0.0,0.0
1696291876189,0.24023438,-0.890625,0.41796875,0.0625,0.0625,0.0,0.0,0.0,0.0
1696291876223,0.23242188,-0.88964844,0.4140625,0.0,-0.0625,0.1875,0.0,0.0,0.0
1696291876277,0.23242188,-0.88378906,0.4013672,-0.21875,0.0,0.0625,-18.75,-71.0625,-200.875
1696291876309,0.22265625,-0.89746094,0.41210938,-0.65625,-0.0625,0.1875,0.0,0.0,0.0
1696291876342,0.23046875,-0.8935547,0.4111328,-0.09375,-0.0625,-0.0625,0.0,0.0,0.0
1696291876371,0.23730469,-0.8886719,0.41210938,0.3125,0.0625,-0.125,0.0,0.0,0.0
1696291876433,0.234375,-0.8886719,0.40527344,0.0625,-0.125,-0.5,0.0,0.0,0.0
1696291876475,0.23632812,-0.89453125,0.4111328,-0.15625,-0.125,0.0,0.0,0.0,0.0
1696291876487,0.22460938,-0.88183594,0.42382812,-0.0625,-0.0625,0.125,0.0,0.0,0.0
1696291876553,0.22558594,-0.88671875,0.40625,0.1875,0.0,0.0625,0.0,0.0,0.0
1696291876581,0.23339844,-0.88378906,0.40722656,-0.21875,0.0,-0.0625,0.0,0.0,0.0
1696291876607,0.22949219,-0.8857422,0.39453125,-0.78125,-0.1875,-0.125,0.0,0.0,0.0
1696291876676,0.23632812,-0.8847656,0.40820312,-0.71875,-0.125,0.0,0.0,0.0,0.0
1696291876698,0.22949219,-0.8876953,0.3984375,-0.21875,-0.125,0.0625,0.0,0.0,0.0
1696291876728,0.23242188,-0.8847656,0.3955078,0.5,0.125,0.1875,0.0,0.0,0.0
1696291876788,0.23144531,-0.8876953,0.4111328,0.25,-0.0625,0.0625,-18.875,-71.6875,-200.75
1696291876822,0.23144531,-0.87597656,0.39941406,-0.0625,-0.125,-0.125,0.0,0.0,0.0
1696291876848,0.23828125,-0.8808594,0.41015625,-0.21875,-0.1875,-0.125,0.0,0.0,0.0
1696291876910,0.23046875,-0.88671875,0.4169922,-0.15625,-0.125,-0.0625,0.0,0.0,0.0
1696291876944,0.23925781,-0.8798828,0.4013672,0.25,-0.0625,-0.0625,0.0,0.0,0.0
1696291876973,0.23144531,-0.88964844,0.40625,-0.0625,-0.125,0.1875,0.0,0.0,0.0
1696291877029,0.22070312,-0.8925781,0.41796875,-0.40625,-0.1875,0.125,0.0,0.0,0.0
1696291877063,0.23046875,-0.88183594,0.4013672,-0.09375,0.125,0.0625,0.0,0.0,0.0
1696291877093,0.23242188,-0.8964844,0.40820312,0.0,-0.1875,-0.125,0.0,0.0,0.0
1696291877151,0.22460938,-0.8886719,0.39257812,-0.15625,-0.125,-0.25,0.0,0.0,0.0
1696291877187,0.22851562,-0.88378906,0.39746094,-0.21875,-0.21875,-0.25,0.0,0.0,0.0
1696291877207,0.23144531,-0.8847656,0.4169922,0.0625,-0.125,-0.0625,0.0,0.0,0.0
1696291877269,0.234375,-0.8808594,0.40234375,0.5625,0.125,0.1875,-20.25,-72.875,-200.3125
1696291877299,0.22753906,-0.89160156,0.41503906,0.375,0.0625,0.09375,0.0,0.0,0.0
1696291877329,0.22558594,-0.8808594,0.41503906,-0.34375,0.0,-0.21875,0.0,0.0,0.0
1696291877390,0.23046875,-0.8876953,0.38964844,-0.53125,0.0625,-0.21875,0.0,0.0,0.0
1696291877423,0.22558594,-0.8857422,0.41308594,-0.40625,0.0,0.15625,0.0,0.0,0.0
1696291877448,0.22753906,-0.89453125,0.4033203,0.4375,0.125,0.28125,0.0,0.0,0.0
1696291877554,0.22167969,-0.8955078,0.4169922,0.875,0.125,0.21875,0.0,0.0,0.0
1696291877557,0.22851562,-0.8857422,0.4111328,0.0,0.0,-0.09375,0.0,0.0,0.0
1696291877573,0.23046875,-0.89160156,0.41210938,-0.125,-0.0625,-0.15625,0.0,0.0,0.0
1696291877629,0.23632812,-0.88183594,0.41601562,0.3125,0.0625,-0.15625,0.0,0.0,0.0
1696291877663,0.23535156,-0.88183594,0.40039062,0.3125,0.0625,0.09375,0.0,0.0,0.0
1696291877689,0.23242188,-0.8886719,0.4091797,-0.0625,0.25,0.15625,0.0,0.0,0.0
1696291877749,0.23925781,-0.89453125,0.3935547,-0.1875,0.0,0.09375,0.0,0.0,0.0
1696291877782,0.22460938,-0.89160156,0.40527344,0.3125,0.1875,0.21875,-17.375,-71.375,-200.3125
1696291877808,0.23339844,-0.8828125,0.4169922,0.4375,0.125,0.03125,0.0,0.0,0.0
1696291877873,0.22851562,-0.8955078,0.42285156,0.3125,0.125,-0.21875,0.0,0.0,0.0
1696291877900,0.23242188,-0.88671875,0.40527344,-0.0625,0.0,-0.03125,0.0,0.0,0.0
1696291877930,0.23046875,-0.88671875,0.40820312,0.125,0.0625,0.09375,0.0,0.0,0.0
1696291877987,0.23046875,-0.890625,0.40039062,0.375,0.125,0.21875,0.0,0.0,0.0
1696291878022,0.22363281,-0.89453125,0.4033203,0.5625,0.125,0.09375,0.0,0.0,0.0
1696291878048,0.22949219,-0.87890625,0.39941406,-0.0625,0.0,-0.15625,0.0,0.0,0.0
1696291878112,0.23046875,-0.8847656,0.41210938,-0.59375,0.0,-0.28125,0.0,0.0,0.0
1696291878140,0.23242188,-0.88964844,0.41015625,0.0,0.0625,0.03125,0.0,0.0,0.0
1696291878170,0.22851562,-0.88378906,0.41796875,0.3125,0.125,0.28125,0.0,0.0,0.0
1696291878233,0.22753906,-0.8828125,0.40429688,0.5625,0.1875,0.21875,0.0,0.0,0.0
1696291878296,0.23046875,-0.8847656,0.4033203,0.125,0.0625,0.09375,-18.75,-72.5625,-200.875
1696291878302,0.23242188,-0.89160156,0.42285156,0.0,0.0,-0.09375,0.0,0.0,0.0
1696291878351,0.22753906,-0.89160156,0.4169922,0.125,0.125,-0.15625,0.0,0.0,0.0
1696291878380,0.23730469,-0.88378906,0.41503906,0.0625,0.0625,-0.21875,0.0,0.0,0.0
1696291878410,0.22851562,-0.8857422,0.40039062,0.1875,0.125,-0.03125,0.0,0.0,0.0
1696291878468,0.22460938,-0.88378906,0.4111328,0.0,0.0,0.15625,0.0,0.0,0.0
1696291878499,0.23242188,-0.8935547,0.41992188,0.0625,0.125,0.28125,0.0,0.0,0.0
1696291878529,0.23632812,-0.890625,0.4111328,0.375,0.125,0.03125,0.0,0.0,0.0
1696291878591,0.23144531,-0.890625,0.41210938,0.125,0.125,-0.09375,0.0,0.0,0.0
1696291878621,0.23339844,-0.8935547,0.41601562,-0.25,0.0,-0.28125,0.0,0.0,0.0
1696291878650,0.23046875,-0.88671875,0.4140625,0.0,0.125,-0.03125,0.0,0.0,0.0
1696291878709,0.2265625,-0.8828125,0.40527344,0.3125,0.0625,0.09375,0.0,0.0,0.0
1696291878744,0.22949219,-0.8886719,0.42285156,0.5,0.0625,0.09375,0.0,0.0,0.0
1696291878770,0.23046875,-0.8925781,0.4091797,-0.40625,-0.0625,-0.15625,-18.75,-70.0,-200.3125
1696291878834,0.23046875,-0.8828125,0.39941406,-0.84375,-0.0625,0.03125,0.0,0.0,0.0
1696291878860,0.22460938,-0.8857422,0.41796875,-0.3125,0.125,0.15625,0.0,0.0,0.0
1696291878887,0.22851562,-0.88378906,0.4140625,0.0,0.0625,0.09375,0.0,0.0,0.0
1696291878950,0.22949219,-0.890625,0.41210938,-0.3125,0.0,-0.21875,0.0,0.0,0.0
1696291878979,0.24023438,-0.8798828,0.39257812,-0.59375,-0.0625,-0.21875,0.0,0.0,0.0
1696291879011,0.24023438,-0.8886719,0.40820312,0.0,-0.125,-0.09375,0.0,0.0,0.0
1696291879072,0.23242188,-0.8857422,0.41210938,0.3125,0.125,0.03125,0.0,0.0,0.0
1696291879099,0.23339844,-0.88671875,0.42382812,0.3125,0.125,0.09375,0.0,0.0,0.0
1696291879129,0.23632812,-0.88183594,0.41992188,-0.3125,0.0625,0.09375,0.0,0.0,0.0
1696291879190,0.23339844,-0.8876953,0.3955078,-0.53125,0.0,0.21875,0.0,0.0,0.0
1696291879221,0.22753906,-0.8886719,0.41015625,-0.25,-0.125,0.03125,0.0,0.0,0.0
1696291879248,0.23046875,-0.8925781,0.41210938,-0.0625,0.125,-0.09375,-18.4375,-72.5625,-200.625
1696291879310,0.23242188,-0.88378906,0.3984375,-0.25,0.0,-0.21875,0.0,0.0,0.0
1696291879342,0.23535156,-0.8925781,0.4091797,-0.125,0.0,-0.03125,0.0,0.0,0.0
1696291879371,0.23046875,-0.8857422,0.41308594,0.375,0.0,0.15625,0.0,0.0,0.0
1696291879429,0.234375,-0.8886719,0.40429688,0.1875,0.125,0.09375,0.0,0.0,0.0
1696291879460,0.23339844,-0.8857422,0.4111328,-0.25,0.0625,-0.15625,0.0,0.0,0.0
1696291879492,0.234375,-0.88671875,0.40722656,-0.59375,0.0625,-0.34375,0.0,0.0,0.0
1696291879548,0.23632812,-0.88378906,0.41210938,-0.71875,-0.0625,-0.03125,0.0,0.0,0.0
1696291879581,0.23242188,-0.8925781,0.3955078,-0.3125,0.0,0.09375,0.0,0.0,0.0
1696291879609,0.23144531,-0.8886719,0.41210938,0.5,0.1875,0.28125,0.0,0.0,0.0
1696291879671,0.22558594,-0.88671875,0.4140625,0.125,0.125,0.03125,0.0,0.0,0.0
1696291879701,0.22949219,-0.88671875,0.40039062,-0.25,-0.1875,-0.15625,0.0,0.0,0.0
1696291879728,0.23339844,-0.88671875,0.4013672,-0.34375,0.0,-0.09375,0.0,0.0,0.0
1696291879822,0.23242188,-0.8925781,0.40429688,0.0,0.0625,-0.09375,-17.5625,-71.6875,-200.75
1696291879832,0.22851562,-0.88671875,0.40722656,0.0625,0.125,-0.03125,0.0,0.0,0.0
1696291879851,0.23339844,-0.8955078,0.40625,-0.125,0.0,0.15625,0.0,0.0,0.0
1696291879909,0.22070312,-0.88671875,0.41308594,-0.0625,-0.0625,0.15625,0.0,0.0,0.0
1696291879944,0.23535156,-0.8847656,0.40039062,0.15625,0.03125,0.0,0.0,0.0,0.0
1696291879970,0.234375,-0.88378906,0.4033203,0.125,-0.09375,-0.09375,0.0,0.0,0.0
1696291880035,0.23925781,-0.8886719,0.4091797,-0.125,-0.03125,-0.15625,0.0,0.0,0.0
1696291880059,0.24023438,-0.890625,0.4111328,-0.1875,-0.03125,0.0625,0.0,0.0,0.0
1696291880089,0.23339844,-0.8935547,0.39746094,0.125,0.03125,0.0625,0.0,0.0,0.0
1696291880151,0.234375,-0.8847656,0.40527344,0.28125,0.03125,0.25,0.0,0.0,0.0
1696291880194,0.22558594,-0.890625,0.421875,0.125,0.03125,-0.03125,0.0,0.0,0.0
1696291880209,0.234375,-0.8847656,0.4140625,-0.5625,-0.15625,-0.28125,0.0,0.0,0.0
1696291880270,0.22949219,-0.88671875,0.40527344,-0.625,0.03125,-0.15625,-18.875,-72.6875,-201.0625
1696291880300,0.23046875,-0.8808594,0.40625,0.0625,-0.03125,0.1875,0.0,0.0,0.0
1696291880328,0.23339844,-0.8808594,0.39746094,0.65625,0.09375,0.125,0.0,0.0,0.0
1696291880389,0.22949219,-0.8798828,0.4169922,0.28125,-0.09375,0.0,0.0,0.0,0.0
1696291880419,0.22753906,-0.88183594,0.41210938,0.0625,-0.15625,-0.03125,0.0,0.0,0.0
1696291880448,0.2265625,-0.88964844,0.40820312,0.0625,-0.03125,-0.15625,0.0,0.0,0.0
1696291880513,0.23242188,-0.8886719,0.41015625,0.21875,0.09375,0.0,0.0,0.0,0.0
1696291880568,0.23242188,-0.8876953,0.40527344,0.0625,-0.03125,-0.28125,0.0,0.0,0.0
1696291880572,0.23828125,-0.8808594,0.4013672,0.0625,-0.03125,0.125,0.0,0.0,0.0
1696291880628,0.22851562,-0.8964844,0.39746094,0.125,0.03125,0.375,0.0,0.0,0.0
1696291880659,0.22558594,-0.8886719,0.40820312,0.46875,0.03125,0.3125,0.0,0.0,0.0
1696291880691,0.23046875,-0.88378906,0.40820312,0.46875,0.03125,-0.09375,0.0,0.0,0.0
1696291880762,0.23730469,-0.88183594,0.4140625,0.15625,-0.03125,-0.21875,0.0,0.0,0.0
1696291880780,0.234375,-0.88671875,0.42285156,0.125,-0.03125,-0.15625,-18.625,-71.6875,-200.75
1696291880807,0.234375,-0.890625,0.39453125,0.28125,0.03125,0.0,0.0,0.0,0.0
1696291880870,0.22949219,-0.88183594,0.41601562,0.40625,0.03125,0.25,0.0,0.0,0.0
1696291880899,0.22363281,-0.8808594,0.41210938,0.125,0.03125,-0.15625,0.0,0.0,0.0
1696291880928,0.22363281,-0.8857422,0.41308594,-0.4375,-0.09375,-0.21875,0.0,0.0,0.0
1696291880991,0.23730469,-0.8935547,0.38671875,-0.0625,-0.21875,-0.15625,0.0,0.0,0.0
1696291881019,0.22851562,-0.8857422,0.4111328,0.125,-0.03125,0.1875,0.0,0.0,0.0
1696291881047,0.23535156,-0.8886719,0.41308594,0.59375,0.25,0.125,0.0,0.0,0.0
1696291881108,0.23339844,-0.8847656,0.4013672,0.34375,-0.09375,0.0,0.0,0.0,0.0
1696291881146,0.24121094,-0.88671875,0.41210938,0.125,-0.09375,-0.03125,0.0,0.0,0.0
1696291881169,0.2265625,-0.88964844,0.40527344,0.0625,-0.09375,-0.09375,0.0,0.0,0.0
1696291881231,0.22851562,-0.890625,0.42773438,0.15625,0.09375,-0.09375,0.0,0.0,0.0
1696291881258,0.22363281,-0.8925781,0.41210938,0.125,0.03125,-0.09375,-18.875,-71.9375,-201.0625
1696291881288,0.22558594,-0.88378906,0.40527344,0.0,-0.03125,0.0,0.0,0.0,0.0
1696291881349,0.22460938,-0.8847656,0.40039062,0.21875,0.15625,0.3125,0.0,0.0,0.0
1696291881383,0.22851562,-0.8798828,0.40234375,0.34375,0.15625,0.0625,0.0,0.0,0.0
1696291881413,0.22949219,-0.88378906,0.41210938,0.21875,-0.09375,-0.03125,0.0,0.0,0.0
1696291881471,0.23144531,-0.890625,0.41503906,-0.0625,-0.15625,-0.21875,0.0,0.0,0.0
1696291881505,0.23242188,-0.8876953,0.4111328,0.125,0.03125,0.0,0.0,0.0,0.0
1696291881544,0.22753906,-0.88671875,0.41210938,0.40625,0.03125,0.0625,0.0,0.0,0.0
1696291881589,0.23144531,-0.8955078,0.42089844,0.84375,0.15625,0.125,0.0,0.0,0.0
1696291881618,0.22851562,-0.8769531,0.4033203,-0.3125,-0.03125,-0.15625,0.0,0.0,0.0
1696291881650,0.22851562,-0.8769531,0.42871094,-1.34375,-0.09375,-0.21875,0.0,0.0,0.0
1696291881715,0.23925781,-0.8847656,0.40625,-0.625,-0.15625,0.0,0.0,0.0,0.0
1696291881739,0.23242188,-0.8828125,0.40527344,0.34375,0.03125,0.125,0.0,0.0,0.0
1696291881768,0.23730469,-0.88671875,0.41796875,0.65625,-0.09375,0.0625,-18.4375,-71.8125,-200.3125
1696291881830,0.22949219,-0.8886719,0.41992188,0.15625,0.03125,-0.03125,0.0,0.0,0.0
1696291881860,0.22558594,-0.88671875,0.4169922,0.125,-0.09375,-0.09375,0.0,0.0,0.0
1696291881894,0.22460938,-0.8876953,0.4140625,-0.0625,-0.15625,-0.21875,0.0,0.0,0.0
1696291881948,0.23046875,-0.8828125,0.4033203,-0.3125,-0.15625,-0.09375,0.0,0.0,0.0
1696291881980,0.22460938,-0.88964844,0.40625,-0.1875,-0.03125,0.0,0.0,0.0,0.0
1696291882008,0.23046875,-0.8857422,0.40820312,-0.125,0.03125,0.125,0.0,0.0,0.0
1696291882104,0.23046875,-0.8857422,0.4169922,0.15625,-0.03125,0.3125,0.0,0.0,0.0
1696291882107,0.22949219,-0.8857422,0.40527344,0.125,-0.09375,0.0,0.0,0.0,0.0
1696291882131,0.234375,-0.8876953,0.3955078,-0.0625,-0.09375,-0.21875,0.0,0.0,0.0
1696291882192,0.23046875,-0.8935547,0.41992188,-0.0625,-0.03125,-0.15625,0.0,0.0,0.0
1696291882221,0.23046875,-0.88378906,0.4111328,0.0,-0.09375,-0.03125,0.0,0.0,0.0
1696291882249,0.2265625,-0.890625,0.3984375,0.34375,0.03125,0.125,-17.125,-71.1875,-201.5
1696291882314,0.2421875,-0.8857422,0.41308594,0.125,-0.03125,0.0625,0.0,0.0,0.0
1696291882352,0.23339844,-0.89160156,0.4111328,-0.5625,-0.03125,-0.03125,0.0,0.0,0.0
1696291882367,0.23242188,-0.88964844,0.41503906,-0.8125,-0.03125,0.0,0.0,0.0,0.0
1696291882428,0.23632812,-0.8876953,0.40039062,-0.125,0.03125,0.1875,0.0,0.0,0.0
1696291882459,0.23242188,-0.89160156,0.40527344,0.53125,0.09375,0.0625,0.0,0.0,0.0
1696291882491,0.22851562,-0.89160156,0.40625,0.15625,0.09375,-0.03125,0.0,0.0,0.0
1696291882581,0.22851562,-0.875,0.4111328,0.0,-0.03125,0.0,0.0,0.0,0.0
1696291882587,0.23535156,-0.8857422,0.4140625,0.0625,-0.21875,0.0,0.0,0.0,0.0
1696291882608,0.23242188,-0.8857422,0.4013672,0.21875,0.09375,0.0,0.0,0.0,0.0
1696291882675,0.24023438,-0.88671875,0.41992188,0.0625,0.03125,0.125,0.0,0.0,0.0
1696291882698,0.23828125,-0.8886719,0.39746094,-0.25,-0.09375,0.125,0.0,0.0,0.0
1696291882728,0.23535156,-0.8847656,0.40722656,-0.125,-0.03125,0.0625,0.0,0.0,0.0
1696291882797,0.22558594,-0.8847656,0.3984375,0.28125,-0.03125,0.0625,-19.625,-71.9375,-200.4375
1696291882848,0.22558594,-0.8847656,0.40820312,0.0625,0.03125,-0.03125,0.0,0.0,0.0
1696291882850,0.22460938,-0.8876953,0.41015625,-0.0625,-0.03125,-0.09375,0.0,0.0,0.0
1696291882915,0.23144531,-0.88183594,0.40820312,-0.0625,0.03125,-0.03125,0.0,0.0,0.0
1696291882947,0.23144531,-0.890625,0.41601562,0.15625,0.03125,0.125,0.0,0.0,0.0
1696291882967,0.22949219,-0.88671875,0.40039062,0.53125,0.15625,-0.03125,0.0,0.0,0.0
1696291883030,0.23144531,-0.8925781,0.4140625,-0.375,0.09375,-0.21875,0.0,0.0,0.0
1696291883063,0.234375,-0.8808594,0.40722656,-0.75,-0.09375,-0.09375,0.0,0.0,0.0
1696291883090,0.234375,-0.890625,0.40820312,-0.1875,-0.03125,0.25,0.0,0.0,0.0
1696291883150,0.22851562,-0.89160156,0.40722656,0.59375,0.15625,0.125,0.0,0.0,0.0
1696291883187,0.22851562,-0.8779297,0.4248047,0.28125,-0.03125,0.0625,0.0,0.0,0.0
1696291883207,0.22460938,-0.8935547,0.3955078,-0.0625,-0.15625,-0.03125,0.0,0.0,0.0
1696291883270,0.23632812,-0.890625,0.4248047,-0.1875,-0.09375,-0.21875,-19.5,-70.75,-200.3125
1696291883302,0.22363281,-0.87890625,0.40722656,0.15625,0.09375,-0.15625,0.0,0.0,0.0
1696291883329,0.2265625,-0.8798828,0.4033203,0.15625,0.03125,-0.09375,0.0,0.0,0.0
1696291883390,0.23828125,-0.875,0.40722656,-0.25,0.03125,0.0625,0.0,0.0,0.0
1696291883426,0.23730469,-0.8847656,0.4013672,0.0625,-0.09375,0.25,0.0,0.0,0.0
1696291883449,0.22949219,-0.8847656,0.40820312,0.40625,0.09375,0.125,0.0,0.0,0.0
1696291883510,0.234375,-0.8857422,0.41503906,0.125,-0.03125,-0.03125,0.0,0.0,0.0
1696291883542,0.23339844,-0.8828125,0.42285156,-0.0625,-0.09375,-0.15625,0.0,0.0,0.0
1696291883568,0.23046875,-0.8886719,0.40039062,0.125,-0.09375,-0.15625,0.0,0.0,0.0
1696291883647,0.22949219,-0.89160156,0.4189453,0.34375,0.03125,0.125,0.0,0.0,0.0
1696291883661,0.22949219,-0.8886719,0.40039062,0.78125,0.09375,0.0625,0.0,0.0,0.0
1696291883694,0.23730469,-0.8925781,0.4248047,-0.1875,0.03125,-0.15625,0.0,0.0,0.0
1696291883755,0.234375,-0.890625,0.40820312,-0.75,-0.03125,-0.21875,0.0,0.0,0.0
1696291883781,0.22753906,-0.890625,0.40527344,-0.1875,0.03125,0.1875,-17.5625,-70.9375,-200.4375
1696291883812,0.22753906,-0.8828125,0.41796875,0.96875,0.03125,0.375,0.0,0.0,0.0
1696291883871,0.23046875,-0.8925781,0.41601562,0.84375,0.21875,0.0625,0.0,0.0,0.0
1696291883903,0.23242188,-0.8886719,0.41796875,0.0625,-0.09375,0.0,0.0,0.0,0.0
1696291883928,0.23828125,-0.8857422,0.41015625,0.0625,-0.09375,-0.09375,0.0,0.0,0.0
1696291883989,0.22558594,-0.8779297,0.41992188,0.34375,-0.03125,-0.15625,0.0,0.0,0.0
1696291884042,0.23046875,-0.8857422,0.39746094,0.15625,0.15625,-0.15625,0.0,0.0,0.0
1696291884054,0.23632812,-0.88671875,0.42089844,-0.125,0.09375,0.0,0.0,0.0,0.0
1696291884113,0.23632812,-0.88378906,0.4169922,0.125,0.03125,0.25,0.0,0.0,0.0
1696291884141,0.2265625,-0.8828125,0.40429688,0.46875,0.09375,0.3125,0.0,0.0,0.0
1696291884169,0.2265625,-0.8964844,0.4169922,0.28125,0.03125,0.125,0.0,0.0,0.0
1696291884228,0.22558594,-0.8808594,0.41503906,0.125,-0.03125,-0.21875,0.0,0.0,0.0
1696291884288,0.23925781,-0.8886719,0.40527344,0.0,-0.03125,-0.15625,-18.3125,-73.4375,-200.4375
1696291884289,0.23828125,-0.89160156,0.40820312,0.40625,0.09375,-0.03125,0.0,0.0,0.0
1696291884384,0.23730469,-0.88183594,0.41015625,0.78125,-0.09375,0.125,0.0,0.0,0.0
1696291884385,0.22558594,-0.8808594,0.4033203,0.125,-0.09375,-0.03125,0.0,0.0,0.0
1696291884411,0.22851562,-0.8769531,0.40820312,-0.625,-0.03125,-0.21875,0.0,0.0,0.0
1696291884467,0.23339844,-0.8886719,0.4033203,-0.375,-0.03125,-0.03125,0.0,0.0,0.0
1696291884499,0.22851562,-0.88378906,0.4091797,0.15625,0.03125,0.1875,0.0,0.0,0.0
1696291884530,0.23242188,-0.8828125,0.42089844,0.65625,0.03125,0.125,0.0,0.0,0.0
1696291884559,0.23339844,-0.8886719,0.40234375,0.21875,-0.09375,0.0,0.0,0.0,0.0
1696291884619,0.23242188,-0.8886719,0.40527344,0.125,-0.03125,-0.15625,0.0,0.0,0.0
1696291884654,0.2265625,-0.89453125,0.39257812,0.21875,0.03125,-0.09375,0.0,0.0,0.0
1696291884678,0.22851562,-0.88183594,0.41015625,0.21875,0.09375,-0.03125,0.0,0.0,0.0
1696291884740,0.22851562,-0.8828125,0.4189453,0.0,-0.03125,0.0625,0.0,0.0,0.0
1696291884768,0.22949219,-0.8847656,0.4033203,-0.125,0.03125,0.1875,-18.0,-70.3125,-199.5625
1696291884799,0.22753906,-0.8925781,0.39746094,0.34375,0.09375,0.1875,0.0,0.0,0.0
1696291884860,0.23339844,-0.890625,0.4111328,0.40625,0.09375,0.0,0.0,0.0,0.0
1696291884893,0.23730469,-0.89160156,0.4033203,0.125,-0.15625,-0.09375,0.0,0.0,0.0
1696291884921,0.22265625,-0.88378906,0.40722656,-0.125,-0.21875,-0.09375,0.0,0.0,0.0
1696291884982,0.22753906,-0.88964844,0.421875,0.125,-0.15625,-0.03125,0.0,0.0,0.0
1696291885008,0.234375,-0.8857422,0.4111328,0.59375,-0.03125,0.1875,0.0,0.0,0.0
1696291885039,0.2265625,-0.8886719,0.40234375,0.0,-0.03125,-0.28125,0.0,0.0,0.0
1696291885128,0.23535156,-0.89453125,0.41992188,-0.6875,-0.03125,-0.09375,0.0,0.0,0.0
1696291885131,0.23535156,-0.89160156,0.4033203,-0.5,-0.03125,0.0,0.0,0.0,0.0
1696291885159,0.22949219,-0.8886719,0.41015625,0.125,0.03125,0.25,0.0,0.0,0.0
1696291885219,0.22265625,-0.8828125,0.42382812,0.59375,0.09375,0.125,0.0,0.0,0.0
1696291885269,0.234375,-0.8886719,0.40527344,-0.1875,-0.09375,-0.09375,-18.875,-70.625,-201.5
1696291885286,0.22949219,-0.8886719,0.39648438,-0.375,-0.21875,-0.09375,0.0,0.0,0.0
1696291885344,0.22265625,-0.88671875,0.40722656,0.0,-0.21875,-0.15625,0.0,0.0,0.0
1696291885369,0.22265625,-0.8886719,0.41601562,0.0625,-0.03125,-0.03125,0.0,0.0,0.0
1696291885400,0.23242188,-0.8886719,0.4091797,0.0,-0.15625,-0.03125,0.0,0.0,0.0
1696291885458,0.2265625,-0.88964844,0.41503906,-0.125,-0.09375,0.125,0.0,0.0,0.0
1696291885487,0.2265625,-0.890625,0.3984375,0.15625,0.09375,0.1875,0.0,0.0,0.0
1696291885523,0.23339844,-0.89160156,0.40722656,0.125,-0.03125,0.0,0.0,0.0,0.0
1696291885581,0.22460938,-0.8886719,0.4169922,-0.3125,-0.09375,-0.03125,0.0,0.0,0.0
1696291885609,0.22558594,-0.8828125,0.40820312,-0.375,-0.09375,0.0625,0.0,0.0,0.0
1696291885639,0.22851562,-0.8876953,0.40820312,0.0625,-0.03125,0.0625,0.0,0.0,0.0
1696291885700,0.23535156,-0.88671875,0.4013672,0.53125,0.09375,0.125,0.0,0.0,0.0
1696291885749,0.23144531,-0.8808594,0.40625,0.125,-0.09375,-0.09375,0.0,0.0,0.0
1696291885760,0.23339844,-0.8857422,0.41503906,-0.5625,-0.03125,-0.21875,-19.375,-71.1875,-200.75
1696291885827,0.23632812,-0.8857422,0.40722656,-0.6875,-0.09375,0.0625,0.0,0.0,0.0
1696291885851,0.23046875,-0.88964844,0.4111328,-0.1875,-0.09375,0.1875,0.0,0.0,0.0
1696291885879,0.23144531,-0.88183594,0.4140625,0.34375,0.03125,0.125,0.0,0.0,0.0
1696291885939,0.23046875,-0.8847656,0.41503906,0.15625,0.09375,0.0,0.0,0.0,0.0
1696291885967,0.22753906,-0.88671875,0.3955078,0.0625,-0.03125,-0.15625,0.0,0.0,0.0
1696291885998,0.23535156,-0.8857422,0.4033203,0.0,-0.15625,-0.03125,0.0,0.0,0.0
1696291886061,0.23242188,-0.8886719,0.4013672,0.34375,0.15625,-0.03125,0.0,0.0,0.0
1696291886089,0.23144531,-0.8857422,0.4111328,0.15625,0.03125,0.0625,0.0,0.0,0.0
1696291886118,0.22851562,-0.890625,0.41601562,-0.1875,-0.15625,0.0625,0.0,0.0,0.0
1696291886187,0.23828125,-0.8847656,0.4033203,-0.1875,-0.09375,0.1875,0.0,0.0,0.0
1696291886207,0.23828125,-0.8955078,0.3935547,0.125,0.03125,-0.09375,0.0,0.0,0.0
1696291886240,0.22167969,-0.8886719,0.39648438,0.0625,0.03125,-0.03125,-18.4375,-72.5625,-199.5625
1696291886302,0.23730469,-0.88378906,0.43066406,-0.1875,0.09375,-0.09375,0.0,0.0,0.0
1696291886329,0.22851562,-0.88964844,0.41210938,0.125,-0.03125,-0.03125,0.0,0.0,0.0
1696291886365,0.23632812,-0.890625,0.40722656,0.40625,0.03125,0.0625,0.0,0.0,0.0
1696291886421,0.23046875,-0.8828125,0.4111328,0.84375,0.09375,-0.09375,0.0,0.0,0.0
1696291886454,0.23925781,-0.8886719,0.4033203,0.125,0.03125,-0.09375,0.0,0.0,0.0
1696291886479,0.23339844,-0.89941406,0.40722656,-0.75,-0.03125,-0.15625,0.0,0.0,0.0
1696291886542,0.23339844,-0.8925781,0.42285156,-0.5625,0.15625,0.0625,0.0,0.0,0.0
1696291886572,0.22753906,-0.8857422,0.40039062,0.28125,0.09375,0.25,0.0,0.0,0.0
1696291886598,0.22265625,-0.8779297,0.4140625,0.78125,0.09375,0.1875,0.0,0.0,0.0
1696291886660,0.23535156,-0.89160156,0.4033203,0.65625,0.21875,-0.03125,0.0,0.0,0.0
1696291886697,0.23339844,-0.89160156,0.41503906,-0.125,-0.09375,0.0625,0.0,0.0,0.0
1696291886718,0.22167969,-0.88378906,0.41210938,-0.5625,-0.03125,0.1875,0.0,0.0,0.0
1696291886783,0.23632812,-0.89160156,0.4013672,-0.625,0.03125,-0.03125,-18.875,-71.6875,-200.75
1696291886808,0.23144531,-0.8886719,0.39746094,-0.1875,0.03125,-0.15625,0.0,0.0,0.0
1696291886838,0.23242188,-0.8886719,0.38964844,0.40625,0.03125,-0.28125,0.0,0.0,0.0
1696291886901,0.23046875,-0.8847656,0.4033203,1.21875,0.09375,0.0625,0.0,0.0,0.0
1696291886930,0.23535156,-0.8935547,0.40625,1.875,0.15625,0.0,0.0,0.0,0.0
1696291886958,0.23144531,-0.8798828,0.40625,1.03125,0.25,0.1875,0.0,0.0,0.0
1696291887018,0.23632812,-0.8925781,0.40722656,-0.5,0.21875,0.375,0.0,0.0,0.0
1696291887058,0.23242188,-0.8779297,0.40820312,-1.0,0.15625,0.4375,0.0,0.0,0.0
1696291887077,0.22851562,-0.88671875,0.4033203,-1.125,0.15625,0.5625,0.0,0.0,0.0
1696291887138,0.22753906,-0.88378906,0.4013672,-0.5,0.21875,0.5,0.0,0.0,0.0
1696291887169,0.23144531,-0.8955078,0.4091797,-0.5625,0.09375,-0.15625,0.0,0.0,0.0
1696291887199,0.23242188,-0.89746094,0.4091797,-0.125,-0.03125,-0.28125,0.0,0.0,0.0
1696291887259,0.23730469,-0.89160156,0.40820312,0.34375,-0.03125,-0.28125,-18.4375,-72.125,-199.875
1696291887295,0.234375,-0.8964844,0.3984375,1.5,0.03125,0.0,0.0,0.0,0.0
1696291887321,0.21582031,-0.8847656,0.41796875,2.0,0.15625,-0.15625,0.0,0.0,0.0
1696291887409,0.23339844,-0.8779297,0.41992188,1.09375,0.03125,-0.21875,0.0,0.0,0.0
1696291887411,0.22558594,-0.87402344,0.41503906,0.34375,0.21875,0.0,0.0,0.0,0.0
1696291887445,0.22558594,-0.8925781,0.39746094,-0.1875,0.03125,-0.09375,0.0,0.0,0.0
1696291887499,0.23339844,-0.8876953,0.40625,0.0,0.15625,-0.09375,0.0,0.0,0.0
1696291887533,0.23046875,-0.87890625,0.40820312,-0.25,0.03125,0.0625,0.0,0.0,0.0
1696291887557,0.22949219,-0.8876953,0.38867188,0.0625,0.15625,0.0625,0.0,0.0,0.0
1696291887620,0.23339844,-0.88183594,0.40527344,0.59375,0.15625,0.375,0.0,0.0,0.0
1696291887653,0.23046875,-0.88378906,0.4033203,0.84375,0.09375,0.25,0.0,0.0,0.0
1696291887680,0.23339844,-0.8847656,0.41210938,0.15625,-0.03125,-0.03125,0.0,0.0,0.0
1696291887738,0.23046875,-0.8828125,0.390625,-0.125,-0.09375,-0.15625,0.0,0.0,0.0
1696291887769,0.22558594,-0.8876953,0.40625,0.40625,-0.03125,-0.21875,-17.6875,-72.125,-199.875
1696291887799,0.22167969,-0.8935547,0.40234375,1.34375,-0.09375,-0.03125,0.0,0.0,0.0
1696291887859,0.22949219,-0.890625,0.4111328,1.15625,0.09375,-0.21875,0.0,0.0,0.0
1696291887888,0.234375,-0.8847656,0.40039062,-0.125,-0.03125,-0.28125,0.0,0.0,0.0
1696291887919,0.23730469,-0.8857422,0.41601562,-0.4375,-0.03125,0.125,0.0,0.0,0.0
1696291887982,0.23144531,-0.890625,0.41015625,0.40625,0.15625,0.3125,0.0,0.0,0.0
1696291888012,0.23242188,-0.8935547,0.4111328,0.84375,0.21875,0.125,0.0,0.0,0.0
1696291888042,0.22851562,-0.8964844,0.40527344,0.28125,0.09375,-0.03125,0.0,0.0,0.0
1696291888100,0.22558594,-0.90234375,0.40820312,0.15625,-0.09375,-0.09375,0.0,0.0,0.0
1696291888138,0.23730469,-0.8847656,0.41992188,0.125,-0.15625,-0.21875,0.0,0.0,0.0
1696291888159,0.22363281,-0.8828125,0.41796875,0.53125,0.15625,-0.03125,0.0,0.0,0.0
1696291888219,0.23828125,-0.88378906,0.41503906,0.15625,0.15625,-0.09375,0.0,0.0,0.0
1696291888249,0.23730469,-0.87890625,0.41308594,0.125,-0.09375,0.0625,-19.625,-71.6875,-200.75
1696291888282,0.2265625,-0.8808594,0.40820312,0.40625,0.15625,0.0625,0.0,0.0,0.0
1696291888339,0.21777344,-0.89160156,0.39160156,0.65625,0.03125,0.1875,0.0,0.0,0.0
1696291888369,0.22167969,-0.8847656,0.4111328,0.125,-0.03125,-0.09375,0.0,0.0,0.0
1696291888397,0.22558594,-0.8955078,0.41015625,-0.375,0.03125,-0.15625,0.0,0.0,0.0
1696291888460,0.234375,-0.8847656,0.4169922,-0.1875,0.03125,-0.21875,0.0,0.0,0.0
1696291888491,0.23632812,-0.88671875,0.41796875,0.40625,0.09375,0.125,0.0,0.0,0.0
1696291888519,0.22363281,-0.88183594,0.4111328,0.78125,0.15625,0.1875,0.0,0.0,0.0
1696291888582,0.23046875,-0.8886719,0.40722656,-0.1875,-0.09375,-0.15625,0.0,0.0,0.0
1696291888610,0.22753906,-0.88671875,0.40234375,-1.0,-0.09375,-0.46875,0.0,0.0,0.0
1696291888640,0.2421875,-0.89453125,0.41601562,-0.0625,-0.03125,-0.03125,0.0,0.0,0.0
1696291888699,0.234375,-0.8798828,0.4013672,0.71875,0.25,0.0,0.0,0.0,0.0
1696291888730,0.23632812,-0.8935547,0.40527344,0.21875,0.03125,0.25,0.0,0.0,0.0
1696291888761,0.22558594,-0.88183594,0.40625,-0.1875,-0.09375,0.0625,-18.75,-71.8125,-199.875
1696291888820,0.22851562,-0.88183594,0.4169922,-0.125,0.03125,-0.03125,0.0,0.0,0.0
1696291888849,0.23242188,-0.8828125,0.40039062,0.40625,0.09375,-0.15625,0.0,0.0,0.0
1696291888879,0.23242188,-0.8828125,0.3984375,0.40625,0.09375,-0.15625,0.0,0.0,0.0
1696291888938,0.22949219,-0.8857422,0.40722656,-0.1875,0.03125,-0.09375,0.0,0.0,0.0
1696291888968,0.22558594,-0.88671875,0.41503906,-0.40625,-0.125,0.21875,0.0,0.0,0.0
1696291888997,0.23339844,-0.89160156,0.41308594,0.1875,0.15625,0.09375,0.0,0.0,0.0
1696291889059,0.22753906,-0.8886719,0.39160156,0.3125,0.15625,-0.03125,0.0,0.0,0.0
1696291889088,0.23632812,-0.8857422,0.41503906,-0.21875,0.0625,-0.09375,0.0,0.0,0.0
1696291889122,0.22753906,-0.88378906,0.40234375,-0.34375,0.0,-0.1875,0.0,0.0,0.0
1696291889179,0.234375,-0.88964844,0.421875,0.0625,0.0625,0.03125,0.0,0.0,0.0
1696291889209,0.23828125,-0.89160156,0.421875,0.4375,0.0,0.15625,0.0,0.0,0.0
1696291889242,0.23046875,-0.8935547,0.4033203,0.0,0.15625,-0.1875,-18.625,-71.1875,-200.0
1696291889299,0.22753906,-0.88183594,0.40527344,-0.78125,0.0,-0.09375,0.0,0.0,0.0
1696291889328,0.23242188,-0.8828125,0.41015625,-0.71875,-0.0625,-0.03125,0.0,0.0,0.0
1696291889358,0.23730469,-0.8886719,0.4091797,-0.03125,0.21875,0.21875,0.0,0.0,0.0
1696291889420,0.23730469,-0.8798828,0.40429688,0.375,0.125,0.15625,0.0,0.0,0.0
1696291889452,0.22851562,-0.8857422,0.39453125,0.0625,0.0625,-0.03125,0.0,0.0,0.0
1696291889479,0.22753906,-0.88378906,0.39746094,-0.28125,-0.125,0.03125,0.0,0.0,0.0
1696291889539,0.2265625,-0.8876953,0.41992188,0.0625,0.0,-0.09375,0.0,0.0,0.0
1696291889567,0.23242188,-0.88378906,0.41992188,0.1875,0.125,-0.15625,0.0,0.0,0.0
1696291889603,0.23339844,-0.8769531,0.4033203,-0.15625,-0.0625,-0.15625,0.0,0.0,0.0
1696291889687,0.22949219,-0.8964844,0.3984375,-0.34375,0.0,0.09375,0.0,0.0,0.0
1696291889689,0.24023438,-0.8828125,0.4169922,-0.15625,0.0,0.15625,0.0,0.0,0.0
1696291889718,0.22558594,-0.8857422,0.40527344,0.125,0.125,0.09375,0.0,0.0,0.0
1696291889780,0.23242188,-0.8847656,0.41015625,0.0625,0.0,-0.09375,-17.375,-71.0625,-201.1875
1696291889813,0.23046875,-0.88671875,0.41503906,-0.34375,0.0625,-0.03125,0.0,0.0,0.0
1696291889843,0.23632812,-0.89160156,0.41308594,-0.15625,0.0,-0.03125,0.0,0.0,0.0
1696291889902,0.23046875,-0.8925781,0.40625,0.375,0.125,0.09375,0.0,0.0,0.0
1696291889935,0.23339844,-0.8798828,0.4091797,0.4375,0.0,0.03125,0.0,0.0,0.0
1696291889959,0.22949219,-0.8798828,0.41308594,-0.34375,0.0625,-0.3125,0.0,0.0,0.0
1696291890020,0.234375,-0.8847656,0.4013672,-0.84375,-0.125,-0.1875,0.0,0.0,0.0
1696291890050,0.23632812,-0.8925781,0.40527344,-0.28125,0.0,0.03125,0.0,0.0,0.0
1696291890079,0.22558594,-0.8808594,0.40234375,0.875,0.21875,0.40625,0.0,0.0,0.0
1696291890139,0.23144531,-0.88378906,0.4140625,1.0,0.125,0.34375,0.0,0.0,0.0
1696291890174,0.23242188,-0.890625,0.4033203,0.3125,0.125,0.21875,0.0,0.0,0.0
1696291890203,0.22558594,-0.8847656,0.3955078,-0.21875,0.0625,0.03125,0.0,0.0,0.0
1696291890259,0.23046875,-0.8779297,0.4189453,-0.21875,-0.125,-0.1875,-18.875,-72.25,-199.6875
1696291890288,0.234375,-0.88671875,0.39746094,0.125,0.21875,-0.25,0.0,0.0,0.0
1696291890320,0.23925781,-0.890625,0.40722656,0.125,0.15625,-0.03125,0.0,0.0,0.0
1696291890378,0.22265625,-0.8857422,0.42773438,0.0,-0.0625,0.21875,0.0,0.0,0.0
1696291890408,0.22363281,-0.8876953,0.4169922,0.0625,0.0,0.15625,0.0,0.0,0.0
1696291890441,0.23242188,-0.88378906,0.41992188,0.5,0.125,-0.03125,0.0,0.0,0.0
1696291890501,0.22753906,-0.8886719,0.42089844,0.25,-0.0625,-0.1875,0.0,0.0,0.0
1696291890529,0.23828125,-0.9003906,0.40527344,-0.03125,0.0625,-0.03125,0.0,0.0,0.0
1696291890559,0.23828125,-0.8876953,0.42578125,-0.03125,0.0,-0.03125,0.0,0.0,0.0
1696291890622,0.22167969,-0.8876953,0.41601562,0.3125,0.0,0.21875,0.0,0.0,0.0
1696291890648,0.22851562,-0.8857422,0.41210938,0.3125,0.15625,-0.09375,0.0,0.0,0.0
1696291890678,0.23144531,-0.88964844,0.40527344,-0.59375,-0.0625,-0.1875,0.0,0.0,0.0
1696291890738,0.22753906,-0.890625,0.40625,-0.59375,-0.0625,0.15625,0.0,0.0,0.0
1696291890790,0.23632812,-0.8847656,0.41210938,0.0625,0.0,0.15625,-18.3125,-73.4375,-200.4375
1696291890798,0.23339844,-0.88378906,0.41308594,0.75,0.15625,0.21875,0.0,0.0,0.0
1696291890858,0.23632812,-0.88671875,0.4140625,0.5,0.0,0.03125,0.0,0.0,0.0
1696291890894,0.23242188,-0.88183594,0.40625,0.5,0.0625,0.15625,0.0,0.0,0.0
1696291890919,0.23046875,-0.9003906,0.41503906,0.0625,0.0625,-0.09375,0.0,0.0,0.0
1696291890984,0.234375,-0.8828125,0.41015625,0.0625,0.0625,-0.15625,0.0,0.0,0.0
1696291891009,0.23242188,-0.89160156,0.41015625,0.125,0.0,-0.03125,0.0,0.0,0.0
1696291891040,0.22851562,-0.8828125,0.41503906,-0.21875,-0.125,0.09375,0.0,0.0,0.0
1696291891099,0.234375,-0.8847656,0.40527344,-0.03125,0.15625,0.28125,0.0,0.0,0.0
1696291891129,0.23046875,-0.875,0.41210938,0.375,0.21875,0.03125,0.0,0.0,0.0
1696291891158,0.22460938,-0.88378906,0.4248047,0.5,0.0625,-0.15625,0.0,0.0,0.0
1696291891220,0.23144531,-0.8808594,0.4140625,-0.03125,0.125,-0.15625,0.0,0.0,0.0
1696291891250,0.234375,-0.8847656,0.40820312,-0.09375,0.0,-0.15625,0.0,0.0,0.0
1696291891280,0.23242188,-0.8876953,0.41601562,0.3125,0.0625,0.21875,-18.3125,-69.875,-199.6875
1696291891340,0.22753906,-0.8847656,0.41210938,0.5625,0.125,-0.03125,0.0,0.0,0.0
1696291891373,0.22949219,-0.8779297,0.41992188,-0.21875,0.125,-0.25,0.0,0.0,0.0
1696291891406,0.22949219,-0.88671875,0.4111328,-1.09375,0.0,-0.03125,0.0,0.0,0.0
1696291891491,0.22460938,-0.87890625,0.41992188,-0.15625,0.0625,0.40625,0.0,0.0,0.0
1696291891495,0.23632812,-0.8876953,0.40625,0.4375,0.15625,0.46875,0.0,0.0,0.0
1696291891524,0.23339844,-0.88183594,0.4033203,0.3125,0.0625,0.15625,0.0,0.0,0.0
1696291891579,0.22460938,-0.8886719,0.4111328,-0.53125,0.0,-0.25,0.0,0.0,0.0
1696291891611,0.22851562,-0.8857422,0.39941406,-0.84375,-0.125,-0.5625,0.0,0.0,0.0
1696291891640,0.23242188,-0.8925781,0.3955078,-0.03125,0.0,-0.375,0.0,0.0,0.0
1696291891734,0.23828125,-0.8876953,0.40625,0.5,0.0625,-0.09375,0.0,0.0,0.0
1696291891738,0.23339844,-0.8779297,0.4091797,0.0625,0.0,0.21875,0.0,0.0,0.0
1696291891761,0.23144531,-0.88183594,0.39746094,-0.15625,0.0,0.21875,-18.625,-71.9375,-200.0
1696291891818,0.23144531,-0.88378906,0.41601562,-0.03125,0.0625,0.15625,0.0,0.0,0.0
1696291891850,0.23339844,-0.88671875,0.4033203,-0.03125,0.0625,-0.09375,0.0,0.0,0.0
1696291891881,0.23828125,-0.8857422,0.40820312,-0.53125,-0.0625,-0.25,0.0,0.0,0.0
1696291891968,0.23242188,-0.89160156,0.40625,-0.46875,-0.0625,-0.09375,0.0,0.0,0.0
1696291891971,0.23632812,-0.88671875,0.39257812,0.0,0.125,0.15625,0.0,0.0,0.0
1696291891998,0.23730469,-0.88671875,0.42871094,0.75,0.0625,0.09375,0.0,0.0,0.0
1696291892062,0.23632812,-0.8847656,0.40039062,0.0,0.0,-0.1875,0.0,0.0,0.0
1696291892090,0.23242188,-0.88671875,0.40429688,-0.96875,-0.0625,-0.15625,0.0,0.0,0.0
1696291892129,0.234375,-0.8955078,0.3935547,-1.03125,0.0,0.03125,0.0,0.0,0.0
1696291892178,0.22753906,-0.890625,0.40527344,0.0625,0.125,0.28125,0.0,0.0,0.0
1696291892208,0.23046875,-0.8886719,0.41308594,0.625,0.15625,0.21875,0.0,0.0,0.0
1696291892240,0.23339844,-0.890625,0.41210938,-0.09375,0.0,0.03125,0.0,0.0,0.0
1696291892300,0.23632812,-0.88183594,0.41601562,-0.40625,0.0,0.03125,-17.6875,-71.375,-200.3125
1696291892329,0.22558594,-0.8876953,0.40722656,-0.28125,-0.125,-0.15625,0.0,0.0,0.0
1696291892359,0.23730469,-0.88378906,0.40429688,0.1875,0.125,-0.03125,0.0,0.0,0.0
1696291892420,0.23242188,-0.8828125,0.4033203,-0.21875,0.0625,0.03125,0.0,0.0,0.0
1696291892449,0.23730469,-0.88378906,0.41015625,-0.40625,0.0,0.15625,0.0,0.0,0.0
1696291892481,0.2265625,-0.89160156,0.41308594,0.0,0.0,0.09375,0.0,0.0,0.0
1696291892542,0.23144531,-0.890625,0.40039062,0.0625,0.21875,0.15625,0.0,0.0,0.0
1696291892572,0.23632812,-0.88671875,0.41308594,-0.34375,-0.0625,0.03125,0.0,0.0,0.0
1696291892608,0.22949219,-0.890625,0.4033203,-0.59375,-0.125,0.09375,0.0,0.0,0.0
1696291892659,0.23046875,-0.88378906,0.40527344,-0.28125,0.0,0.21875,0.0,0.0,0.0
1696291892689,0.23632812,-0.88378906,0.41601562,0.125,0.15625,0.21875,0.0,0.0,0.0
1696291892718,0.23144531,-0.88671875,0.4091797,0.125,0.125,-0.15625,0.0,0.0,0.0
1696291892784,0.23632812,-0.8935547,0.41210938,-0.59375,0.0,-0.25,-19.5,-72.875,-201.625
1696291892808,0.22460938,-0.88671875,0.40234375,-0.90625,0.0,0.09375,0.0,0.0,0.0
1696291892843,0.22070312,-0.88378906,0.40527344,-0.21875,0.0625,0.21875,0.0,0.0,0.0
1696291892900,0.23632812,-0.88183594,0.4169922,0.625,0.15625,0.09375,0.0,0.0,0.0
1696291892929,0.24121094,-0.890625,0.39648438,0.0,0.15625,0.09375,0.0,0.0,0.0
1696291892959,0.2265625,-0.87890625,0.4013672,-0.21875,0.0,-0.09375,0.0,0.0,0.0
1696291893020,0.22753906,-0.8847656,0.41210938,0.0,-0.0625,0.03125,0.0,0.0,0.0
1696291893048,0.2265625,-0.8828125,0.4013672,0.3125,0.125,0.03125,0.0,0.0,0.0
1696291893079,0.22851562,-0.8876953,0.40527344,0.0625,0.125,-0.09375,0.0,0.0,0.0
1696291893139,0.23339844,-0.8876953,0.41015625,-0.09375,0.0,0.03125,0.0,0.0,0.0
1696291893173,0.22460938,-0.8955078,0.4033203,0.125,0.125,0.15625,0.0,0.0,0.0
1696291893201,0.22753906,-0.8808594,0.4091797,0.4375,-0.0625,0.15625,0.0,0.0,0.0
1696291893262,0.23242188,-0.8876953,0.39160156,0.3125,0.0625,-0.03125,0.0,0.0,0.0
1696291893287,0.21875,-0.8925781,0.40234375,-0.03125,0.0625,-0.03125,-18.625,-70.625,-200.0
1696291893317,0.22558594,-0.8808594,0.3984375,-0.03125,0.0,-0.03125,0.0,0.0,0.0
1696291893380,0.22851562,-0.8876953,0.40234375,0.4375,0.0625,0.09375,0.0,0.0,0.0
1696291893409,0.22363281,-0.8798828,0.41015625,0.6875,0.15625,-0.15625,0.0,0.0,0.0
1696291893439,0.22851562,-0.890625,0.4033203,-0.21875,0.0,-0.15625,0.0,0.0,0.0
1696291893499,0.23730469,-0.8857422,0.41503906,-0.90625,0.0625,0.03125,0.0,0.0,0.0
1696291893532,0.22949219,-0.8857422,0.39746094,-0.34375,0.0625,0.34375,0.0,0.0,0.0
1696291893561,0.22460938,-0.88964844,0.4267578,0.8125,0.0625,0.21875,0.0,0.0,0.0
1696291893588,0.23535156,-0.8886719,0.41796875,0.5,0.0,0.03125,0.0,0.0,0.0
1696291893652,0.23339844,-0.8828125,0.40820312,-0.15625,0.125,0.03125,0.0,0.0,0.0
1696291893682,0.23339844,-0.8847656,0.41210938,0.0,-0.0625,-0.09375,0.0,0.0,0.0
1696291893710,0.22851562,-0.8857422,0.4111328,0.125,0.0,-0.09375,0.0,0.0,0.0
1696291893767,0.23925781,-0.88183594,0.42089844,0.0625,-0.0625,-0.1875,-18.4375,-72.875,-199.875
1696291893800,0.22558594,-0.89160156,0.42382812,-0.34375,0.0,0.09375,0.0,0.0,0.0
1696291893830,0.23242188,-0.8964844,0.40722656,0.0,0.125,0.28125,0.0,0.0,0.0
1696291893888,0.22753906,-0.88964844,0.41210938,0.3125,0.15625,0.15625,0.0,0.0,0.0
1696291893918,0.22460938,-0.8857422,0.40039062,0.0625,0.15625,0.15625,0.0,0.0,0.0
1696291893948,0.22949219,-0.890625,0.4111328,-0.09375,0.0,-0.03125,0.0,0.0,0.0
1696291894010,0.234375,-0.88671875,0.4140625,0.0625,-0.125,-0.09375,0.0,0.0,0.0
1696291894045,0.22753906,-0.8828125,0.4111328,0.3125,0.125,-0.09375,0.0,0.0,0.0
1696291894067,0.22851562,-0.8876953,0.4189453,0.5,0.0625,-0.15625,0.0,0.0,0.0
1696291894129,0.24121094,-0.88183594,0.3984375,-0.53125,-0.125,-0.1875,0.0,0.0,0.0
1696291894160,0.234375,-0.8847656,0.40527344,-1.03125,-0.125,-0.03125,0.0,0.0,0.0
1696291894188,0.23925781,-0.88183594,0.41015625,-0.28125,0.0,0.21875,0.0,0.0,0.0
1696291894251,0.23535156,-0.88378906,0.40527344,0.375,0.0,0.40625,0.0,0.0,0.0
1696291894279,0.23242188,-0.8925781,0.4111328,0.3125,0.125,0.15625,-17.125,-72.6875,-200.4375
1696291894307,0.234375,-0.8876953,0.40527344,-0.03125,0.0625,-0.09375,0.0,0.0,0.0
1696291894369,0.22265625,-0.88378906,0.40722656,-0.15625,-0.0625,-0.09375,0.0,0.0,0.0
1696291894399,0.23242188,-0.8925781,0.4013672,0.0,0.0,-0.09375,0.0,0.0,0.0
1696291894428,0.2265625,-0.87890625,0.41796875,-0.03125,0.125,0.03125,0.0,0.0,0.0
1696291894488,0.22851562,-0.8857422,0.40722656,-0.34375,0.0625,0.34375,0.0,0.0,0.0
1696291894519,0.22265625,-0.88378906,0.40527344,-0.90625,0.0,0.15625,0.0,0.0,0.0
1696291894547,0.21875,-0.88378906,0.41992188,-0.09375,-0.125,-0.15625,0.0,0.0,0.0
1696291894607,0.23046875,-0.8876953,0.4033203,-0.03125,0.0625,-0.25,0.0,0.0,0.0
1696291894638,0.23242188,-0.890625,0.40722656,-0.15625,-0.0625,-0.09375,0.0,0.0,0.0
1696291894668,0.2265625,-0.8886719,0.41210938,-0.09375,-0.1875,-0.15625,0.0,0.0,0.0
1696291894728,0.23828125,-0.8828125,0.41308594,0.0,0.15625,-0.03125,0.0,0.0,0.0
1696291894762,0.23339844,-0.88183594,0.4091797,0.4375,0.0625,0.03125,-18.3125,-72.25,-200.4375
1696291894788,0.23144531,-0.8828125,0.40527344,-0.34375,-0.0625,-0.03125,0.0,0.0,0.0
1696291894847,0.23535156,-0.8876953,0.42089844,-1.03125,-0.0625,0.03125,0.0,0.0,0.0
1696291894885,0.23632812,-0.8876953,0.41308594,-0.71875,0.0,0.03125,0.0,0.0,0.0
1696291894907,0.23144531,-0.8876953,0.3955078,0.125,0.125,0.09375,0.0,0.0,0.0
1696291894991,0.22753906,-0.88671875,0.4169922,0.4375,0.125,0.09375,0.0,0.0,0.0
1696291894997,0.22558594,-0.87890625,0.41015625,0.125,0.0625,-0.03125,0.0,0.0,0.0
1696291895027,0.22460938,-0.8876953,0.4189453,-0.59375,-0.125,0.03125,0.0,0.0,0.0
1696291895090,0.23535156,-0.8925781,0.41015625,-0.03125,0.0,-0.15625,0.0,0.0,0.0
1696291895120,0.22851562,-0.8828125,0.40820312,0.0625,0.0625,-0.03125,0.0,0.0,0.0
1696291895148,0.21875,-0.8964844,0.40527344,-0.21875,-0.1875,-0.03125,0.0,0.0,0.0
1696291895208,0.23339844,-0.88183594,0.3984375,-0.65625,-0.0625,0.15625,0.0,0.0,0.0
1696291895242,0.23242188,-0.88964844,0.41503906,-0.40625,-0.0625,0.09375,0.0,0.0,0.0
1696291895269,0.23632812,-0.890625,0.41796875,0.375,0.15625,-0.03125,-18.0,-71.8125,-199.875
1696291895330,0.23828125,-0.88183594,0.42382812,-0.09375,0.0625,0.03125,0.0,0.0,0.0
1696291895359,0.22851562,-0.88183594,0.41796875,-0.46875,0.0625,0.28125,0.0,0.0,0.0
1696291895390,0.23046875,-0.8876953,0.40527344,-0.90625,0.0,0.28125,0.0,0.0,0.0
1696291895455,0.2265625,-0.88964844,0.40527344,-0.28125,-0.0625,0.15625,0.0,0.0,0.0
1696291895478,0.24023438,-0.8876953,0.39746094,0.0,0.125,-0.1875,0.0,0.0,0.0
1696291895514,0.22363281,-0.8925781,0.40625,-0.34375,-0.0625,-0.25,0.0,0.0,0.0
1696291895570,0.22949219,-0.88183594,0.39648438,-0.15625,-0.1875,-0.25,0.0,0.0,0.0
1696291895623,0.23242188,-0.890625,0.40039062,0.3125,0.0,0.09375,0.0,0.0,0.0
1696291895637,0.23242188,-0.8857422,0.41992188,0.625,0.0625,0.03125,0.0,0.0,0.0
1696291895687,0.22949219,-0.8886719,0.40722656,-0.03125,0.0625,0.03125,0.0,0.0,0.0
1696291895719,0.23242188,-0.88378906,0.3984375,-0.59375,0.0,0.09375,0.0,0.0,0.0
1696291895779,0.22949219,-0.8876953,0.40527344,-0.46875,0.0625,0.09375,-18.625,-71.1875,-201.0625
1696291895809,0.234375,-0.8925781,0.40039062,-0.34375,0.15625,0.15625,0.0,0.0,0.0
1696291895839,0.22851562,-0.8925781,0.4169922,-0.40625,0.15625,0.15625,0.0,0.0,0.0
1696291895867,0.22949219,-0.88671875,0.39746094,-0.34375,0.0,0.21875,0.0,0.0,0.0
1696291895929,0.23632812,-0.8886719,0.41210938,0.0,-0.0625,0.09375,0.0,0.0,0.0
1696291895975,0.23242188,-0.8935547,0.40625,0.375,0.0,-0.15625,0.0,0.0,0.0
1696291895991,0.22851562,-0.89160156,0.41210938,0.0625,0.0625,-0.25,0.0,0.0,0.0
1696291896050,0.23242188,-0.8935547,0.40722656,0.0,0.0,-0.25,0.0,0.0,0.0
1696291896078,0.24023438,-0.8925781,0.3984375,0.375,0.125,-0.03125,0.0,0.0,0.0
1696291896110,0.22460938,-0.8847656,0.40039062,0.8125,0.0625,0.15625,0.0,0.0,0.0
1696291896169,0.23046875,-0.87597656,0.40429688,0.25,0.21875,0.15625,0.0,0.0,0.0
1696291896199,0.22753906,-0.88378906,0.41210938,-0.90625,0.0,0.03125,0.0,0.0,0.0
1696291896230,0.23339844,-0.88964844,0.40820312,-0.96875,0.125,0.09375,0.0,0.0,0.0
1696291896288,0.23144531,-0.8955078,0.41992188,-0.09375,0.125,0.21875,-18.625,-72.25,-202.125
1696291896319,0.23046875,-0.8857422,0.40820312,0.75,0.125,0.15625,0.0,0.0,0.0
1696291896349,0.22851562,-0.8847656,0.4091797,0.25,0.0625,0.03125,0.0,0.0,0.0
1696291896408,0.22558594,-0.8857422,0.40039062,-0.03125,0.0,-0.03125,0.0,0.0,0.0
1696291896448,0.23144531,-0.8876953,0.41796875,0.125,0.0625,-0.09375,0.0,0.0,0.0
1696291896469,0.22851562,-0.88671875,0.40722656,0.125,0.0625,-0.15625,0.0,0.0,0.0
1696291896531,0.22265625,-0.8779297,0.4169922,-0.03125,-0.0625,0.03125,0.0,0.0,0.0
1696291896560,0.22558594,-0.89453125,0.40625,-0.09375,0.0,0.21875,0.0,0.0,0.0
1696291896589,0.23339844,-0.88671875,0.4091797,-0.03125,0.15625,0.15625,0.0,0.0,0.0
1696291896648,0.22167969,-0.8847656,0.39746094,0.0,0.15625,0.09375,0.0,0.0,0.0
1696291896681,0.23242188,-0.88183594,0.40527344,0.1875,0.125,-0.03125,0.0,0.0,0.0
1696291896708,0.22949219,-0.8847656,0.4013672,0.03125,0.0,-0.1875,0.0,0.0,0.0
1696291896772,0.22460938,-0.8935547,0.4111328,0.125,0.0625,-0.0625,-17.5625,-73.4375,-202.375
1696291896798,0.22753906,-0.8886719,0.40625,0.3125,0.15625,0.125,0.0,0.0,0.0
1696291896828,0.22558594,-0.89453125,0.40820312,0.25,0.09375,-0.0625,0.0,0.0,0.0
1696291896897,0.22363281,-0.8847656,0.41210938,-0.65625,-0.0625,-0.25,0.0,0.0,0.0
1696291896918,0.22949219,-0.88671875,0.4111328,-0.84375,-0.0625,-0.25,0.0,0.0,0.0
1696291896948,0.23144531,-0.8857422,0.39160156,0.0625,-0.0625,0.1875,0.0,0.0,0.0
