# Sensor type: Thingy
# Activity type: Lying down on stomach
# Activity subtype: Normal
# Subject id: s2094833
# Notes: 
timestamp,accel_x,accel_y,accel_z,gyro_x,gyro_y,gyro_z,mag_x,mag_y,mag_z
1696292174719,0.16503906,-0.10058594,-0.96484375,0.46875,-0.59375,0.15625,0.0,0.0,0.0
1696292174778,0.16894531,-0.111328125,-0.9941406,1.1875,0.625,0.15625,-10.8125,-26.1875,-258.0625
1696292174808,0.17285156,-0.1171875,-0.9824219,0.90625,1.125,-0.03125,0.0,0.0,0.0
1696292174838,0.17675781,-0.11230469,-0.98535156,-0.5625,0.09375,-0.09375,0.0,0.0,0.0
1696292174898,0.17089844,-0.09667969,-0.9892578,-0.28125,-0.40625,0.15625,0.0,0.0,0.0
1696292174927,0.17578125,-0.111328125,-1.0019531,-0.15625,-0.40625,0.03125,0.0,0.0,0.0
1696292174959,0.16210938,-0.10253906,-0.9863281,-0.34375,-0.21875,0.15625,0.0,0.0,0.0
1696292175020,0.16210938,-0.10644531,-0.9746094,-0.34375,-0.15625,-0.03125,0.0,0.0,0.0
1696292175047,0.171875,-0.10644531,-0.9638672,-0.21875,-0.09375,0.09375,0.0,0.0,0.0
1696292175080,0.17089844,-0.107421875,-0.9941406,-0.09375,-0.34375,0.09375,0.0,0.0,0.0
1696292175140,0.16699219,-0.11621094,-1.0048828,-0.15625,-0.21875,0.09375,0.0,0.0,0.0
1696292175170,0.16699219,-0.109375,-0.9873047,-0.09375,0.09375,-0.03125,0.0,0.0,0.0
1696292175204,0.17089844,-0.107421875,-0.98828125,-0.03125,-0.21875,0.15625,0.0,0.0,0.0
1696292175258,0.18261719,-0.11425781,-0.9785156,-0.15625,-0.65625,0.09375,-10.5,-24.6875,-258.0625
1696292175289,0.17089844,-0.10449219,-0.9941406,-0.28125,-0.65625,0.15625,0.0,0.0,0.0
1696292175318,0.17382812,-0.103515625,-0.9814453,-0.4375,-0.65625,-0.03125,0.0,0.0,0.0
1696292175378,0.16992188,-0.10839844,-0.98828125,-0.5,-0.53125,0.09375,0.0,0.0,0.0
1696292175411,0.16503906,-0.103515625,-0.9785156,-0.375,-0.59375,0.09375,0.0,0.0,0.0
1696292175439,0.16601562,-0.10253906,-0.9980469,-0.28125,-0.46875,0.03125,0.0,0.0,0.0
1696292175499,0.16699219,-0.10253906,-0.9824219,0.03125,-0.40625,0.09375,0.0,0.0,0.0
1696292175532,0.17675781,-0.107421875,-0.9892578,-0.03125,-0.21875,0.09375,0.0,0.0,0.0
1696292175558,0.16796875,-0.099609375,-0.9863281,-0.09375,-0.46875,0.09375,0.0,0.0,0.0
1696292175619,0.16992188,-0.103515625,-1.0,-0.15625,-0.21875,0.15625,0.0,0.0,0.0
1696292175648,0.16601562,-0.103515625,-0.99316406,-0.21875,-0.09375,0.09375,0.0,0.0,0.0
1696292175678,0.17285156,-0.10253906,-0.9785156,-0.34375,-0.40625,0.15625,0.0,0.0,0.0
1696292175737,0.16601562,-0.103515625,-0.9863281,-0.375,-0.34375,0.09375,0.0,0.0,0.0
1696292175769,0.17089844,-0.10839844,-0.99316406,-0.5,-0.46875,0.09375,-11.6875,-24.25,-257.3125
1696292175801,0.17480469,-0.10839844,-0.9970703,-0.375,-0.15625,-0.09375,0.0,0.0,0.0
1696292175860,0.1640625,-0.10449219,-0.99316406,-0.15625,-0.34375,0.09375,0.0,0.0,0.0
1696292175889,0.16308594,-0.10644531,-0.984375,0.03125,-0.15625,0.21875,0.0,0.0,0.0
1696292175919,0.16113281,-0.109375,-0.9941406,-0.03125,-0.21875,-0.03125,0.0,0.0,0.0
1696292175981,0.16113281,-0.09277344,-0.99609375,-0.15625,-0.21875,0.09375,0.0,0.0,0.0
1696292176008,0.16601562,-0.1015625,-0.99316406,-0.03125,-0.28125,0.09375,0.0,0.0,0.0
1696292176041,0.15917969,-0.10058594,-0.97753906,-0.03125,-0.21875,0.15625,0.0,0.0,0.0
1696292176098,0.16699219,-0.1015625,-0.9902344,-0.28125,-0.03125,0.09375,0.0,0.0,0.0
1696292176128,0.16503906,-0.1015625,-0.9863281,-0.15625,-0.21875,-0.03125,0.0,0.0,0.0
1696292176159,0.16699219,-0.11425781,-0.9863281,-0.03125,-0.40625,0.21875,0.0,0.0,0.0
1696292176221,0.1640625,-0.10253906,-0.98828125,-0.03125,-0.34375,0.03125,0.0,0.0,0.0
1696292176248,0.16113281,-0.11035156,-0.99609375,0.03125,-0.15625,0.15625,-11.125,-25.0,-258.9375
1696292176279,0.16210938,-0.10058594,-0.99316406,0.03125,-0.09375,0.09375,0.0,0.0,0.0
1696292176338,0.15917969,-0.099609375,-0.9765625,0.09375,-0.28125,0.28125,0.0,0.0,0.0
1696292176368,0.16113281,-0.099609375,-0.98339844,-0.03125,-0.21875,0.28125,0.0,0.0,0.0
1696292176399,0.16601562,-0.10546875,-0.9814453,-0.03125,0.28125,0.09375,0.0,0.0,0.0
1696292176458,0.16503906,-0.1015625,-0.99316406,0.03125,0.09375,0.09375,0.0,0.0,0.0
1696292176490,0.16308594,-0.10644531,-0.98828125,0.09375,-0.15625,0.15625,0.0,0.0,0.0
1696292176518,0.16699219,-0.109375,-0.98828125,0.15625,-0.09375,0.09375,0.0,0.0,0.0
1696292176580,0.16113281,-0.115234375,-0.9951172,0.03125,0.03125,0.15625,0.0,0.0,0.0
1696292176607,0.16503906,-0.10546875,-0.98339844,-0.03125,-0.21875,0.09375,0.0,0.0,0.0
1696292176642,0.16894531,-0.109375,-0.9794922,-0.09375,-0.21875,0.15625,0.0,0.0,0.0
1696292176700,0.15820312,-0.09667969,-0.9951172,-0.09375,-0.03125,0.09375,0.0,0.0,0.0
1696292176732,0.16308594,-0.10253906,-0.98339844,0.03125,0.15625,0.28125,0.0,0.0,0.0
1696292176760,0.16308594,-0.10449219,-0.9824219,-0.03125,-0.09375,0.09375,-11.6875,-23.5,-257.625
1696292176819,0.1640625,-0.10546875,-0.98828125,0.21875,0.15625,0.09375,0.0,0.0,0.0
1696292176850,0.16601562,-0.10546875,-0.98046875,0.21875,0.5625,-0.03125,0.0,0.0,0.0
1696292176909,0.16503906,-0.10546875,-0.9902344,0.21875,0.6875,0.09375,0.0,0.0,0.0
1696292176972,0.15820312,-0.10058594,-0.9980469,0.15625,0.75,-0.09375,0.0,0.0,0.0
1696292176974,0.16308594,-0.1171875,-0.9863281,0.03125,0.6875,-0.03125,0.0,0.0,0.0
1696292177000,0.16796875,-0.103515625,-0.99609375,0.15625,0.40625,-0.09375,0.0,0.0,0.0
1696292177067,0.16210938,-0.107421875,-0.97753906,0.28125,0.40625,0.15625,0.0,0.0,0.0
1696292177094,0.16796875,-0.10449219,-0.9736328,0.40625,0.34375,-0.03125,0.0,0.0,0.0
1696292177118,0.16308594,-0.10546875,-0.9824219,0.53125,0.40625,0.09375,0.0,0.0,0.0
1696292177180,0.16699219,-0.11035156,-0.98339844,0.21875,0.5,0.09375,0.0,0.0,0.0
1696292177218,0.16210938,-0.10644531,-0.984375,0.28125,0.5,-0.03125,0.0,0.0,0.0
1696292177241,0.17089844,-0.10839844,-0.97265625,0.15625,0.40625,0.03125,-13.375,-24.4375,-256.6875
1696292177302,0.16699219,-0.1015625,-0.9951172,0.28125,0.28125,0.09375,0.0,0.0,0.0
1696292177327,0.16308594,-0.11816406,-0.9736328,0.40625,0.40625,-0.03125,0.0,0.0,0.0
1696292177362,0.17089844,-0.11035156,-0.96777344,0.28125,0.4375,0.09375,0.0,0.0,0.0
1696292177421,0.16601562,-0.11230469,-0.9746094,0.21875,0.28125,0.09375,0.0,0.0,0.0
1696292177447,0.16503906,-0.10546875,-0.98828125,0.03125,0.21875,0.15625,0.0,0.0,0.0
1696292177481,0.17285156,-0.111328125,-1.0058594,0.03125,0.34375,0.03125,0.0,0.0,0.0
1696292177540,0.16992188,-0.103515625,-0.9785156,0.15625,0.21875,0.03125,0.0,0.0,0.0
1696292177569,0.16601562,-0.111328125,-0.9794922,0.28125,0.34375,0.09375,0.0,0.0,0.0
1696292177604,0.17480469,-0.111328125,-0.9765625,0.28125,0.4375,0.09375,0.0,0.0,0.0
1696292177658,0.17285156,-0.111328125,-0.9814453,0.21875,0.5,0.03125,0.0,0.0,0.0
1696292177687,0.17089844,-0.11035156,-0.9814453,0.28125,0.5625,-0.03125,0.0,0.0,0.0
1696292177720,0.17382812,-0.103515625,-0.9863281,0.15625,0.34375,0.21875,0.0,0.0,0.0
1696292177782,0.16894531,-0.103515625,-0.99121094,0.15625,0.40625,0.09375,-13.0625,-23.375,-257.75
1696292177808,0.16601562,-0.11230469,-0.9941406,-0.03125,0.21875,-0.03125,0.0,0.0,0.0
1696292177843,0.16601562,-0.11230469,-0.96972656,0.03125,0.21875,0.03125,0.0,0.0,0.0
1696292177905,0.15917969,-0.103515625,-0.98339844,0.03125,0.09375,-0.03125,0.0,0.0,0.0
1696292177927,0.16992188,-0.107421875,-0.96777344,0.03125,0.34375,0.03125,0.0,0.0,0.0
1696292177958,0.17871094,-0.1171875,-0.99316406,0.03125,0.09375,0.09375,0.0,0.0,0.0
1696292178022,0.16894531,-0.11035156,-0.9863281,0.15625,0.28125,-0.03125,0.0,0.0,0.0
1696292178050,0.16699219,-0.111328125,-0.9785156,0.03125,0.21875,-0.03125,0.0,0.0,0.0
1696292178078,0.17480469,-0.10546875,-0.9824219,-0.03125,0.21875,0.15625,0.0,0.0,0.0
1696292178142,0.16992188,-0.10839844,-0.9921875,0.09375,0.21875,0.03125,0.0,0.0,0.0
1696292178169,0.16503906,-0.10546875,-0.9794922,0.03125,0.03125,0.09375,0.0,0.0,0.0
1696292178204,0.16601562,-0.1015625,-0.9873047,-0.03125,0.03125,0.09375,0.0,0.0,0.0
1696292178258,0.16308594,-0.107421875,-0.98535156,0.03125,0.28125,-0.09375,-12.4375,-24.5625,-258.375
1696292178288,0.16699219,-0.109375,-0.9794922,0.03125,0.40625,0.03125,0.0,0.0,0.0
1696292178319,0.16699219,-0.109375,-0.98339844,-0.09375,0.15625,0.09375,0.0,0.0,0.0
1696292178382,0.16699219,-0.1015625,-0.9785156,-0.34375,-0.03125,0.03125,0.0,0.0,0.0
1696292178407,0.16601562,-0.109375,-0.9863281,-0.15625,0.03125,0.09375,0.0,0.0,0.0
1696292178440,0.17871094,-0.111328125,-0.9892578,-0.21875,-0.09375,0.09375,0.0,0.0,0.0
1696292178500,0.171875,-0.1171875,-0.9785156,0.03125,0.09375,0.09375,0.0,0.0,0.0
1696292178528,0.17089844,-0.109375,-0.9892578,0.03125,0.15625,0.09375,0.0,0.0,0.0
1696292178559,0.16699219,-0.11425781,-0.96777344,0.03125,0.15625,0.09375,0.0,0.0,0.0
1696292178628,0.16894531,-0.11230469,-0.984375,0.09375,0.03125,0.03125,0.0,0.0,0.0
1696292178647,0.1640625,-0.10644531,-0.97265625,-0.15625,-0.09375,0.15625,0.0,0.0,0.0
1696292178677,0.16699219,-0.111328125,-0.9873047,-0.15625,-0.09375,0.09375,0.0,0.0,0.0
1696292178739,0.16992188,-0.107421875,-0.9941406,-0.34375,0.03125,-0.03125,0.0,0.0,0.0
1696292178767,0.16992188,-0.109375,-0.99121094,-0.15625,-0.03125,0.15625,-11.6875,-24.25,-257.3125
1696292178798,0.17578125,-0.10644531,-0.9794922,-0.09375,-0.28125,0.15625,0.0,0.0,0.0
1696292178900,0.17382812,-0.11230469,-0.97753906,-0.09375,-0.21875,0.09375,0.0,0.0,0.0
1696292178902,0.16992188,-0.12011719,-1.0048828,-0.21875,-0.09375,-0.03125,0.0,0.0,0.0
1696292178920,0.16601562,-0.099609375,-1.0,-0.03125,0.09375,0.09375,0.0,0.0,0.0
1696292179007,0.16894531,-0.1015625,-0.9921875,0.03125,0.09375,0.03125,0.0,0.0,0.0
1696292179009,0.18554688,-0.109375,-1.0019531,-0.03125,-0.09375,0.15625,0.0,0.0,0.0
1696292179046,0.16699219,-0.111328125,-0.99316406,-0.09375,-0.21875,0.21875,0.0,0.0,0.0
1696292179098,0.16992188,-0.10058594,-0.9814453,-0.09375,-0.09375,0.09375,0.0,0.0,0.0
1696292179128,0.17578125,-0.10449219,-0.99121094,-0.15625,-0.34375,0.03125,0.0,0.0,0.0
1696292179171,0.16601562,-0.109375,-0.9902344,-0.375,-0.15625,0.03125,0.0,0.0,0.0
1696292179252,0.17089844,-0.111328125,-0.9814453,-0.28125,-0.09375,0.03125,0.0,0.0,0.0
1696292179254,0.17382812,-0.11230469,-0.9785156,-0.15625,-0.28125,0.15625,-12.3125,-25.1875,-258.5
1696292179278,0.17382812,-0.109375,-0.9951172,-0.03125,-0.28125,0.15625,0.0,0.0,0.0
1696292179338,0.16894531,-0.10546875,-0.9794922,-0.03125,-0.34375,0.09375,0.0,0.0,0.0
1696292179368,0.18261719,-0.1015625,-0.9785156,-0.21875,-0.15625,0.15625,0.0,0.0,0.0
1696292179398,0.16796875,-0.10449219,-0.9814453,-0.09375,0.09375,0.03125,0.0,0.0,0.0
1696292179459,0.17382812,-0.109375,-0.9814453,-0.09375,-0.09375,0.15625,0.0,0.0,0.0
1696292179494,0.16992188,-0.10546875,-0.9873047,-0.15625,-0.09375,0.03125,0.0,0.0,0.0
1696292179519,0.17089844,-0.10546875,-0.9951172,-0.21875,-0.09375,0.09375,0.0,0.0,0.0
1696292179580,0.16699219,-0.099609375,-0.984375,0.03125,0.34375,-0.03125,0.0,0.0,0.0
1696292179607,0.16894531,-0.10839844,-0.98828125,-0.03125,0.03125,0.09375,0.0,0.0,0.0
1696292179642,0.16796875,-0.10546875,-0.9785156,0.21875,0.09375,0.03125,0.0,0.0,0.0
1696292179698,0.16894531,-0.107421875,-0.98535156,-0.03125,-0.03125,0.09375,0.0,0.0,0.0
1696292179730,0.16601562,-0.11328125,-0.96777344,-0.15625,-0.09375,0.03125,0.0,0.0,0.0
1696292179759,0.16699219,-0.11035156,-0.9892578,-0.21875,-0.03125,0.03125,-12.3125,-25.1875,-257.75
1696292179820,0.17089844,-0.10644531,-0.9921875,-0.03125,-0.28125,0.03125,0.0,0.0,0.0
1696292179877,0.16992188,-0.103515625,-0.99121094,-0.15625,-0.03125,0.09375,0.0,0.0,0.0
1696292179878,0.16894531,-0.11230469,-0.98046875,-0.09375,-0.15625,0.15625,0.0,0.0,0.0
1696292179943,0.16601562,-0.10546875,-0.9746094,0.03125,0.03125,0.03125,0.0,0.0,0.0
1696292179969,0.16015625,-0.099609375,-0.98046875,-0.03125,-0.21875,0.03125,0.0,0.0,0.0
1696292180003,0.16308594,-0.11425781,-0.9941406,-0.15625,-0.03125,0.03125,0.0,0.0,0.0
1696292180062,0.16699219,-0.115234375,-0.97753906,-0.15625,0.03125,0.09375,0.0,0.0,0.0
1696292180089,0.17285156,-0.10253906,-0.98339844,-0.09375,-0.03125,0.15625,0.0,0.0,0.0
1696292180125,0.1640625,-0.11230469,-0.9707031,-0.09375,-0.21875,0.03125,0.0,0.0,0.0
1696292180180,0.1640625,-0.11035156,-0.9794922,-0.03125,-0.09375,0.21875,0.0,0.0,0.0
1696292180208,0.17773438,-0.107421875,-0.9902344,0.03125,0.4375,0.09375,0.0,0.0,0.0
1696292180240,0.16601562,-0.11035156,-0.97265625,0.03125,0.09375,0.15625,-11.5625,-25.4375,-258.0625
1696292180300,0.16796875,-0.111328125,-0.98339844,-0.03125,-0.03125,0.03125,0.0,0.0,0.0
1696292180329,0.16894531,-0.11621094,-1.0019531,-0.03125,-0.21875,0.09375,0.0,0.0,0.0
1696292180358,0.16796875,-0.10253906,-0.99316406,0.03125,0.03125,0.15625,0.0,0.0,0.0
1696292180419,0.16699219,-0.09863281,-0.9863281,-0.03125,-0.03125,0.03125,0.0,0.0,0.0
1696292180449,0.17285156,-0.1171875,-0.98339844,-0.09375,-0.09375,0.15625,0.0,0.0,0.0
1696292180481,0.16796875,-0.107421875,-0.98535156,-0.03125,0.03125,0.09375,0.0,0.0,0.0
1696292180541,0.17773438,-0.107421875,-0.97753906,-0.03125,-0.09375,0.15625,0.0,0.0,0.0
1696292180568,0.1640625,-0.11035156,-0.9736328,0.03125,0.09375,0.15625,0.0,0.0,0.0
1696292180600,0.16699219,-0.10644531,-0.99316406,0.03125,0.03125,0.09375,0.0,0.0,0.0
1696292180690,0.15917969,-0.099609375,-0.9765625,-0.03125,0.03125,0.15625,0.0,0.0,0.0
1696292180694,0.17089844,-0.10839844,-1.0058594,-0.03125,0.03125,0.09375,0.0,0.0,0.0
1696292180721,0.15722656,-0.107421875,-0.9794922,-0.03125,0.03125,0.09375,0.0,0.0,0.0
1696292180779,0.16503906,-0.10644531,-0.97265625,-0.09375,-0.28125,0.15625,-11.6875,-23.5,-257.3125
1696292180814,0.16601562,-0.1015625,-0.9921875,-0.03125,-0.09375,0.09375,0.0,0.0,0.0
1696292180841,0.16210938,-0.10253906,-0.9765625,0.03125,0.4375,-0.03125,0.0,0.0,0.0
1696292180870,0.16992188,-0.107421875,-0.99609375,0.03125,0.15625,0.09375,0.0,0.0,0.0
1696292180930,0.16894531,-0.10546875,-0.9746094,0.15625,0.21875,0.09375,0.0,0.0,0.0
1696292180959,0.16503906,-0.11230469,-0.984375,0.21875,0.28125,0.15625,0.0,0.0,0.0
1696292180989,0.16210938,-0.11035156,-0.9814453,0.21875,0.40625,0.03125,0.0,0.0,0.0
1696292181047,0.16992188,-0.10253906,-0.99316406,0.15625,0.28125,-0.03125,0.0,0.0,0.0
1696292181079,0.16699219,-0.115234375,-0.99609375,0.21875,0.21875,0.09375,0.0,0.0,0.0
1696292181107,0.16796875,-0.109375,-0.98046875,0.09375,0.09375,0.09375,0.0,0.0,0.0
1696292181169,0.15820312,-0.10546875,-0.9921875,0.21875,0.21875,-0.03125,0.0,0.0,0.0
1696292181201,0.16699219,-0.107421875,-0.98828125,0.03125,0.15625,0.09375,0.0,0.0,0.0
1696292181258,0.16992188,-0.103515625,-0.98535156,-0.03125,0.21875,0.15625,-12.0,-24.125,-257.75
1696292181288,0.16601562,-0.11035156,-0.98339844,0.03125,0.21875,0.09375,0.0,0.0,0.0
1696292181318,0.16894531,-0.107421875,-0.99121094,0.03125,0.09375,0.09375,0.0,0.0,0.0
1696292181349,0.16308594,-0.10546875,-0.98828125,0.09375,0.21875,0.03125,0.0,0.0,0.0
1696292181410,0.16894531,-0.10644531,-0.9921875,0.09375,0.28125,0.03125,0.0,0.0,0.0
1696292181439,0.16601562,-0.10644531,-0.984375,0.15625,0.28125,0.09375,0.0,0.0,0.0
1696292181469,0.16796875,-0.11230469,-0.9765625,0.03125,0.34375,0.09375,0.0,0.0,0.0
1696292181530,0.171875,-0.10644531,-0.9824219,0.03125,0.34375,-0.03125,0.0,0.0,0.0
1696292181562,0.16699219,-0.10644531,-1.0029297,0.03125,0.15625,0.15625,0.0,0.0,0.0
1696292181587,0.17089844,-0.11328125,-0.98828125,0.15625,0.21875,0.03125,0.0,0.0,0.0
1696292181651,0.17089844,-0.10839844,-0.9746094,0.09375,0.09375,0.15625,0.0,0.0,0.0
1696292181679,0.17089844,-0.107421875,-0.9863281,0.09375,0.15625,0.15625,0.0,0.0,0.0
1696292181708,0.16601562,-0.10839844,-0.9902344,0.03125,0.15625,0.15625,0.0,0.0,0.0
1696292181768,0.17382812,-0.10546875,-0.9794922,0.15625,0.28125,0.09375,-12.3125,-23.6875,-258.0625
1696292181802,0.16699219,-0.103515625,-0.99121094,0.15625,0.28125,0.15625,0.0,0.0,0.0
1696292181827,0.16699219,-0.11425781,-0.98828125,0.03125,0.09375,0.15625,0.0,0.0,0.0
1696292181892,0.17382812,-0.10253906,-0.9902344,0.15625,0.21875,0.09375,0.0,0.0,0.0
1696292181921,0.16992188,-0.10644531,-0.9941406,0.03125,0.21875,0.09375,0.0,0.0,0.0
1696292181949,0.17773438,-0.11328125,-0.97265625,0.03125,0.34375,-0.03125,0.0,0.0,0.0
1696292182014,0.16992188,-0.11035156,-0.96875,0.03125,0.15625,0.09375,0.0,0.0,0.0
1696292182040,0.17089844,-0.11621094,-0.9794922,-0.09375,0.03125,0.15625,0.0,0.0,0.0
1696292182067,0.16699219,-0.109375,-0.98535156,-0.03125,0.09375,0.03125,0.0,0.0,0.0
1696292182128,0.17089844,-0.109375,-0.98828125,0.03125,0.15625,-0.15625,0.0,0.0,0.0
1696292182159,0.16796875,-0.11230469,-0.9873047,0.03125,0.28125,0.09375,0.0,0.0,0.0
1696292182190,0.17285156,-0.111328125,-0.9814453,0.03125,0.28125,0.03125,0.0,0.0,0.0
1696292182249,0.17871094,-0.10644531,-0.9863281,0.09375,0.03125,0.09375,-11.125,-24.25,-257.875
1696292182280,0.17382812,-0.103515625,-0.9892578,0.21875,0.09375,0.09375,0.0,0.0,0.0
1696292182310,0.16992188,-0.11621094,-0.9863281,0.15625,0.21875,0.03125,0.0,0.0,0.0
1696292182370,0.17578125,-0.109375,-0.99609375,0.03125,-0.03125,0.03125,0.0,0.0,0.0
1696292182399,0.17089844,-0.10839844,-0.9921875,0.03125,0.09375,0.09375,0.0,0.0,0.0
1696292182428,0.16699219,-0.109375,-0.9824219,-0.09375,-0.03125,-0.09375,0.0,0.0,0.0
1696292182490,0.17871094,-0.11425781,-0.9736328,0.03125,0.09375,0.03125,0.0,0.0,0.0
1696292182519,0.17578125,-0.111328125,-0.97558594,0.09375,0.09375,0.03125,0.0,0.0,0.0
1696292182551,0.15820312,-0.111328125,-0.99902344,-0.03125,0.03125,-0.03125,0.0,0.0,0.0
1696292182610,0.16796875,-0.10644531,-0.9863281,-0.09375,-0.15625,-0.09375,0.0,0.0,0.0
1696292182642,0.17089844,-0.10839844,-0.9892578,0.03125,0.09375,0.03125,0.0,0.0,0.0
1696292182671,0.1640625,-0.12402344,-0.9863281,-0.03125,0.09375,-0.03125,0.0,0.0,0.0
1696292182735,0.17480469,-0.11425781,-0.99121094,-0.03125,-0.09375,0.15625,0.0,0.0,0.0
1696292182758,0.17480469,-0.11816406,-0.9863281,-0.03125,0.03125,0.03125,-10.8125,-24.125,-257.0
1696292182789,0.17382812,-0.11035156,-0.99316406,-0.03125,-0.09375,-0.03125,0.0,0.0,0.0
1696292182850,0.171875,-0.10546875,-0.9873047,0.03125,0.09375,0.03125,0.0,0.0,0.0
1696292182883,0.17578125,-0.109375,-0.9873047,-0.03125,0.03125,0.09375,0.0,0.0,0.0
1696292182907,0.16992188,-0.11328125,-0.984375,0.03125,0.09375,0.03125,0.0,0.0,0.0
1696292182970,0.16699219,-0.11230469,-0.98828125,-0.03125,-0.15625,0.03125,0.0,0.0,0.0
1696292183002,0.16601562,-0.11816406,-0.9824219,-0.09375,-0.21875,-0.03125,0.0,0.0,0.0
1696292183029,0.17089844,-0.109375,-0.9902344,-0.21875,-0.09375,-0.03125,0.0,0.0,0.0
1696292183089,0.16992188,-0.12011719,-0.9824219,-0.09375,-0.28125,-0.03125,0.0,0.0,0.0
1696292183124,0.17285156,-0.10449219,-0.98339844,-0.15625,-0.09375,0.09375,0.0,0.0,0.0
1696292183150,0.17675781,-0.10546875,-0.9892578,-0.09375,-0.15625,-0.15625,0.0,0.0,0.0
1696292183208,0.17382812,-0.107421875,-0.99121094,-0.03125,-0.15625,0.09375,0.0,0.0,0.0
1696292183241,0.17089844,-0.11035156,-0.98828125,-0.15625,-0.28125,-0.03125,0.0,0.0,0.0
1696292183268,0.16699219,-0.11425781,-0.98339844,-0.21875,-0.15625,0.09375,-11.5625,-24.4375,-257.75
1696292183329,0.16699219,-0.10644531,-0.97265625,-0.15625,-0.09375,0.03125,0.0,0.0,0.0
1696292183358,0.16796875,-0.107421875,-0.9794922,-0.15625,-0.03125,-0.03125,0.0,0.0,0.0
1696292183387,0.16894531,-0.11230469,-0.98339844,-0.15625,-0.09375,0.03125,0.0,0.0,0.0
1696292183452,0.16796875,-0.11035156,-0.9794922,-0.28125,-0.09375,0.03125,0.0,0.0,0.0
1696292183480,0.17382812,-0.10644531,-0.98046875,-0.15625,-0.21875,-0.03125,0.0,0.0,0.0
1696292183510,0.16992188,-0.109375,-0.9785156,-0.09375,0.09375,0.03125,0.0,0.0,0.0
1696292183569,0.17480469,-0.111328125,-0.9863281,-0.09375,-0.21875,-0.03125,0.0,0.0,0.0
1696292183602,0.1640625,-0.11621094,-0.97265625,-0.03125,-0.28125,0.09375,0.0,0.0,0.0
1696292183630,0.16601562,-0.109375,-0.99609375,-0.03125,-0.15625,-0.03125,0.0,0.0,0.0
1696292183690,0.16308594,-0.10644531,-0.9785156,-0.15625,-0.15625,0.03125,0.0,0.0,0.0
1696292183722,0.16308594,-0.111328125,-0.984375,-0.09375,-0.21875,0.09375,0.0,0.0,0.0
1696292183752,0.15429688,-0.099609375,-0.984375,-0.03125,-0.21875,0.09375,-12.4375,-23.8125,-257.3125
1696292183808,0.17578125,-0.103515625,-0.98535156,-0.09375,-0.15625,0.09375,0.0,0.0,0.0
1696292183842,0.16601562,-0.10058594,-0.9892578,-0.15625,-0.03125,0.15625,0.0,0.0,0.0
1696292183870,0.17578125,-0.11230469,-0.99609375,-0.03125,-0.09375,0.15625,0.0,0.0,0.0
1696292183929,0.16503906,-0.107421875,-0.97753906,-0.03125,-0.15625,0.09375,0.0,0.0,0.0
1696292183967,0.17089844,-0.10644531,-0.9902344,-0.21875,-0.21875,0.03125,0.0,0.0,0.0
1696292183990,0.171875,-0.09472656,-0.9873047,-0.15625,-0.03125,-0.03125,0.0,0.0,0.0
1696292184050,0.1640625,-0.10546875,-0.9785156,-0.09375,-0.09375,0.03125,0.0,0.0,0.0
1696292184078,0.16894531,-0.10449219,-0.9814453,0.125,0.0,-0.0625,0.0,0.0,0.0
1696292184109,0.15917969,-0.10644531,-0.98046875,0.0,0.0625,-0.0625,0.0,0.0,0.0
1696292184169,0.16601562,-0.107421875,-0.9921875,0.0,0.25,0.03125,0.0,0.0,0.0
1696292184214,0.17089844,-0.11035156,-0.98339844,0.0,-0.0625,-0.0625,0.0,0.0,0.0
1696292184259,0.17089844,-0.10546875,-0.9873047,0.0,-0.0625,0.09375,0.0,0.0,0.0
1696292184289,0.16699219,-0.1171875,-0.9794922,0.0625,-0.09375,0.03125,-10.1875,-24.6875,-258.8125
1696292184319,0.16796875,-0.11035156,-0.98828125,0.0,-0.0625,0.0,0.0,0.0,0.0
1696292184353,0.15917969,-0.10546875,-0.9785156,0.0,0.125,-0.0625,0.0,0.0,0.0
1696292184408,0.1796875,-0.10449219,-0.9902344,0.0,0.0,0.03125,0.0,0.0,0.0
1696292184438,0.17285156,-0.10546875,-0.98339844,0.0625,-0.09375,0.09375,0.0,0.0,0.0
1696292184468,0.17773438,-0.107421875,-0.9746094,0.0625,-0.0625,0.03125,0.0,0.0,0.0
1696292184530,0.17089844,-0.10449219,-0.9736328,0.25,0.125,0.03125,0.0,0.0,0.0
1696292184588,0.16601562,-0.109375,-0.9824219,0.125,0.0,0.0,0.0,0.0,0.0
1696292184591,0.16894531,-0.107421875,-0.97558594,0.125,-0.09375,0.0,0.0,0.0,0.0
1696292184649,0.15429688,-0.10546875,-0.98046875,0.0625,-0.09375,0.03125,0.0,0.0,0.0
1696292184681,0.16796875,-0.1171875,-0.97753906,0.125,0.1875,-0.0625,0.0,0.0,0.0
1696292184711,0.16015625,-0.099609375,-0.9746094,0.0625,-0.09375,0.03125,0.0,0.0,0.0
1696292184775,0.16503906,-0.109375,-0.99609375,0.125,-0.09375,0.0,-11.25,-24.4375,-259.5625
1696292184800,0.16601562,-0.10058594,-0.9814453,0.0625,0.125,0.0,0.0,0.0,0.0
1696292184829,0.16894531,-0.10058594,-0.9814453,0.3125,0.4375,0.0,0.0,0.0,0.0
1696292184891,0.171875,-0.115234375,-0.9814453,0.1875,0.3125,-0.0625,0.0,0.0,0.0
1696292184924,0.16894531,-0.10644531,-0.9794922,0.1875,0.125,0.03125,0.0,0.0,0.0
1696292184948,0.16699219,-0.11230469,-0.99121094,0.25,0.375,-0.0625,0.0,0.0,0.0
1696292185012,0.17285156,-0.109375,-0.9892578,0.1875,0.4375,-0.0625,0.0,0.0,0.0
1696292185042,0.17285156,-0.1171875,-0.9863281,0.1875,0.25,0.0,0.0,0.0,0.0
1696292185069,0.171875,-0.11621094,-0.984375,0.1875,0.1875,0.03125,0.0,0.0,0.0
1696292185129,0.16601562,-0.10839844,-0.99609375,0.0625,0.125,-0.0625,0.0,0.0,0.0
1696292185159,0.15917969,-0.111328125,-0.97265625,0.125,0.1875,-0.0625,0.0,0.0,0.0
1696292185187,0.17480469,-0.10058594,-0.97753906,0.0625,0.1875,-0.0625,0.0,0.0,0.0
1696292185254,0.16699219,-0.119140625,-0.9794922,0.0,-0.0625,-0.0625,0.0,0.0,0.0
1696292185281,0.17578125,-0.11035156,-0.9785156,0.0,-0.0625,0.0,-12.4375,-25.0,-258.375
1696292185309,0.17285156,-0.103515625,-0.9951172,0.0625,0.125,-0.0625,0.0,0.0,0.0
1696292185369,0.17089844,-0.09472656,-0.98535156,0.125,0.3125,0.0,0.0,0.0,0.0
1696292185401,0.17578125,-0.103515625,-0.9863281,0.0625,0.0625,-0.0625,0.0,0.0,0.0
1696292185431,0.16308594,-0.10449219,-0.9765625,0.3125,0.375,0.0,0.0,0.0,0.0
1696292185488,0.16503906,-0.10839844,-0.984375,0.25,0.3125,-0.125,0.0,0.0,0.0
1696292185519,0.16796875,-0.10546875,-0.9765625,0.125,0.5625,-0.0625,0.0,0.0,0.0
1696292185579,0.16699219,-0.11425781,-0.9794922,0.0625,0.25,0.0,0.0,0.0,0.0
1696292185608,0.16796875,-0.1015625,-0.9892578,0.125,0.25,0.0,0.0,0.0,0.0
1696292185640,0.16503906,-0.10839844,-0.9863281,0.125,0.0625,0.0,0.0,0.0,0.0
1696292185670,0.17675781,-0.10839844,-0.9902344,0.125,0.25,-0.0625,0.0,0.0,0.0
1696292185729,0.1640625,-0.10644531,-0.9746094,0.0,0.125,-0.0625,0.0,0.0,0.0
1696292185760,0.17578125,-0.107421875,-0.9873047,0.1875,0.3125,0.03125,-10.625,-25.3125,-256.5625
1696292185790,0.16894531,-0.10253906,-0.99316406,0.25,0.3125,0.03125,0.0,0.0,0.0
1696292185852,0.16894531,-0.10644531,-0.9863281,0.125,0.3125,-0.125,0.0,0.0,0.0
1696292185883,0.17382812,-0.10644531,-0.98339844,0.3125,0.4375,-0.125,0.0,0.0,0.0
1696292185908,0.17089844,-0.115234375,-0.9824219,0.25,0.1875,-0.125,0.0,0.0,0.0
1696292185972,0.16894531,-0.10839844,-0.99316406,0.125,0.0625,-0.0625,0.0,0.0,0.0
1696292186004,0.17382812,-0.103515625,-0.9892578,0.125,0.1875,0.09375,0.0,0.0,0.0
1696292186029,0.17382812,-0.107421875,-0.9824219,0.125,0.3125,0.0,0.0,0.0,0.0
1696292186089,0.16992188,-0.11230469,-0.98828125,0.1875,0.3125,0.03125,0.0,0.0,0.0
1696292186124,0.16308594,-0.10253906,-0.984375,0.125,0.1875,0.03125,0.0,0.0,0.0
1696292186149,0.16503906,-0.10546875,-0.9951172,0.1875,0.3125,-0.0625,0.0,0.0,0.0
1696292186214,0.16894531,-0.11035156,-0.9814453,0.125,0.5625,-0.1875,0.0,0.0,0.0
1696292186240,0.17675781,-0.10253906,-0.98339844,0.125,0.25,-0.0625,0.0,0.0,0.0
1696292186270,0.16601562,-0.10839844,-0.9814453,0.125,0.25,0.0,-9.625,-24.5625,-256.875
1696292186329,0.17773438,-0.10644531,-0.9873047,0.125,0.125,0.0,0.0,0.0,0.0
1696292186358,0.17871094,-0.11230469,-0.9902344,0.0625,0.125,0.03125,0.0,0.0,0.0
1696292186391,0.17382812,-0.111328125,-0.9746094,-0.0625,0.0625,0.0,0.0,0.0,0.0
1696292186448,0.16503906,-0.11328125,-0.9892578,0.0,0.0625,-0.0625,0.0,0.0,0.0
1696292186483,0.17382812,-0.10058594,-0.9980469,0.0625,0.0,0.0,0.0,0.0,0.0
1696292186508,0.17285156,-0.109375,-0.9794922,0.125,0.1875,0.0,0.0,0.0,0.0
1696292186573,0.17089844,-0.119140625,-0.9814453,0.125,0.3125,-0.0625,0.0,0.0,0.0
1696292186600,0.16699219,-0.11425781,-0.9746094,0.0625,0.0,0.0,0.0,0.0,0.0
1696292186631,0.16210938,-0.10839844,-0.9873047,0.0625,0.0625,0.03125,0.0,0.0,0.0
1696292186688,0.171875,-0.109375,-0.9863281,-0.0625,0.0,0.0,0.0,0.0,0.0
1696292186718,0.17480469,-0.115234375,-0.9863281,0.0,0.0625,0.0,0.0,0.0,0.0
1696292186750,0.17578125,-0.1171875,-0.98828125,0.0,-0.0625,0.03125,-10.625,-24.5625,-257.625
1696292186808,0.17382812,-0.115234375,-0.9892578,0.0625,0.0625,0.15625,0.0,0.0,0.0
1696292186840,0.17675781,-0.10839844,-0.9794922,0.0625,0.0625,-0.0625,0.0,0.0,0.0
1696292186868,0.15917969,-0.11035156,-0.98339844,0.0625,0.125,0.03125,0.0,0.0,0.0
1696292186931,0.17382812,-0.11035156,-0.9980469,0.0625,0.1875,-0.0625,0.0,0.0,0.0
1696292186959,0.17285156,-0.10546875,-0.99609375,-0.0625,-0.09375,-0.0625,0.0,0.0,0.0
1696292186989,0.17089844,-0.10546875,-0.9736328,0.0,-0.0625,-0.0625,0.0,0.0,0.0
1696292187049,0.17578125,-0.1015625,-0.98535156,0.0625,-0.0625,0.0,0.0,0.0,0.0
1696292187078,0.171875,-0.11230469,-0.9902344,-0.0625,0.0625,-0.125,0.0,0.0,0.0
1696292187109,0.17285156,-0.10546875,-0.9892578,0.0,-0.0625,0.03125,0.0,0.0,0.0
1696292187179,0.17675781,-0.109375,-0.9736328,0.0625,-0.21875,0.0,0.0,0.0,0.0
1696292187198,0.17675781,-0.103515625,-0.99121094,-0.125,-0.15625,0.0,0.0,0.0,0.0
1696292187230,0.16992188,-0.11425781,-0.99121094,-0.125,0.0,0.03125,0.0,0.0,0.0
1696292187288,0.17285156,-0.10644531,-0.98828125,-0.0625,-0.15625,0.03125,-10.375,-24.5625,-258.9375
1696292187319,0.17675781,-0.10546875,-0.9863281,-0.0625,-0.28125,0.03125,0.0,0.0,0.0
1696292187352,0.16113281,-0.109375,-0.9921875,-0.125,-0.21875,-0.0625,0.0,0.0,0.0
1696292187409,0.16699219,-0.10839844,-0.9785156,-0.1875,0.0,-0.0625,0.0,0.0,0.0
1696292187439,0.16894531,-0.1171875,-0.9794922,0.0625,0.0,0.0,0.0,0.0,0.0
1696292187468,0.16992188,-0.11230469,-0.9902344,0.0,-0.15625,0.03125,0.0,0.0,0.0
1696292187528,0.17382812,-0.11621094,-0.99121094,-0.125,-0.21875,0.03125,0.0,0.0,0.0
1696292187560,0.17675781,-0.099609375,-0.9863281,-0.0625,-0.0625,-0.0625,0.0,0.0,0.0
1696292187589,0.17675781,-0.107421875,-0.9785156,-0.0625,0.3125,-0.0625,0.0,0.0,0.0
1696292187648,0.1796875,-0.10546875,-0.98828125,-0.0625,0.125,-0.0625,0.0,0.0,0.0
1696292187681,0.17089844,-0.099609375,-0.9941406,0.1875,-0.0625,0.09375,0.0,0.0,0.0
1696292187708,0.16992188,-0.10253906,-0.98046875,0.0625,0.125,0.0,0.0,0.0,0.0
1696292187767,0.17382812,-0.09765625,-0.9970703,-0.0625,0.0625,0.0,-11.375,-24.25,-258.625
1696292187807,0.171875,-0.11328125,-0.99121094,-0.125,0.0625,-0.0625,0.0,0.0,0.0
1696292187829,0.16015625,-0.11328125,-0.99121094,-0.0625,-0.09375,0.03125,0.0,0.0,0.0
1696292187889,0.16894531,-0.11230469,-0.9814453,-0.0625,0.0,0.0,0.0,0.0,0.0
1696292187920,0.171875,-0.10644531,-0.984375,-0.125,0.0625,0.03125,0.0,0.0,0.0
1696292187949,0.16894531,-0.10546875,-0.99902344,0.0,-0.0625,0.0,0.0,0.0,0.0
1696292188010,0.17871094,-0.10449219,-0.9863281,0.125,0.0625,0.03125,0.0,0.0,0.0
1696292188040,0.16601562,-0.109375,-0.984375,0.0625,0.0625,-0.03125,0.0,0.0,0.0
1696292188069,0.16894531,-0.103515625,-0.9863281,-0.0625,0.125,0.03125,0.0,0.0,0.0
1696292188131,0.16796875,-0.10546875,-0.9863281,-0.0625,0.0,0.03125,0.0,0.0,0.0
1696292188160,0.16992188,-0.095703125,-0.96972656,0.0625,0.0,-0.03125,0.0,0.0,0.0
1696292188188,0.17480469,-0.11328125,-0.9921875,0.0625,-0.09375,-0.03125,0.0,0.0,0.0
1696292188251,0.16601562,-0.10839844,-0.99609375,0.0,0.0625,0.09375,0.0,0.0,0.0
1696292188278,0.16308594,-0.103515625,-0.98046875,0.0625,0.125,-0.09375,-12.4375,-24.5625,-257.625
1696292188316,0.17480469,-0.107421875,-0.99316406,0.0625,-0.09375,0.03125,0.0,0.0,0.0
1696292188367,0.16796875,-0.10644531,-0.9873047,0.0625,0.0,-0.03125,0.0,0.0,0.0
1696292188400,0.16503906,-0.10644531,-0.99121094,0.0,-0.03125,0.09375,0.0,0.0,0.0
1696292188427,0.16503906,-0.1015625,-0.984375,0.0625,-0.03125,0.03125,0.0,0.0,0.0
1696292188491,0.17089844,-0.109375,-0.9892578,0.0,-0.09375,-0.03125,0.0,0.0,0.0
1696292188523,0.16699219,-0.103515625,-0.9863281,0.0625,-0.15625,-0.03125,0.0,0.0,0.0
1696292188549,0.1640625,-0.10253906,-0.9824219,0.25,0.1875,-0.03125,0.0,0.0,0.0
1696292188608,0.16796875,-0.103515625,-0.97753906,0.125,0.125,-0.03125,0.0,0.0,0.0
1696292188639,0.17480469,-0.109375,-0.99121094,0.1875,0.0625,0.09375,0.0,0.0,0.0
1696292188670,0.15917969,-0.10644531,-0.9824219,-0.0625,-0.03125,-0.03125,0.0,0.0,0.0
1696292188728,0.16308594,-0.11230469,-0.9873047,-0.3125,-0.03125,0.03125,0.0,0.0,0.0
1696292188762,0.17089844,-0.10253906,-0.9941406,-0.0625,0.0,0.03125,-11.5625,-25.4375,-258.5
1696292188787,0.17285156,-0.10546875,-0.9921875,0.0625,0.0625,0.03125,0.0,0.0,0.0
1696292188849,0.16699219,-0.107421875,-1.0009766,0.125,0.125,-0.09375,0.0,0.0,0.0
1696292188879,0.16894531,-0.107421875,-0.9873047,0.0625,-0.09375,-0.03125,0.0,0.0,0.0
1696292188909,0.16601562,-0.11035156,-0.9863281,0.0,0.25,0.03125,0.0,0.0,0.0
1696292188969,0.16601562,-0.1015625,-0.99121094,0.0,0.125,-0.03125,0.0,0.0,0.0
1696292188999,0.16894531,-0.103515625,-0.98828125,0.0625,0.0,-0.03125,0.0,0.0,0.0
1696292189027,0.16992188,-0.11035156,-0.9941406,0.125,0.1875,-0.09375,0.0,0.0,0.0
1696292189089,0.171875,-0.1015625,-0.9765625,0.0625,0.0625,0.03125,0.0,0.0,0.0
1696292189119,0.17773438,-0.10644531,-1.0019531,0.0,0.25,0.03125,0.0,0.0,0.0
1696292189149,0.16601562,-0.10546875,-0.9785156,0.0625,0.0625,-0.03125,0.0,0.0,0.0
1696292189212,0.16894531,-0.107421875,-0.9785156,0.1875,0.1875,0.03125,0.0,0.0,0.0
1696292189240,0.171875,-0.1015625,-0.9902344,0.125,0.25,-0.03125,0.0,0.0,0.0
1696292189268,0.16601562,-0.10253906,-0.99316406,0.1875,0.1875,-0.03125,-10.8125,-24.125,-256.6875
1696292189330,0.17578125,-0.1171875,-0.98828125,0.4375,0.1875,0.03125,0.0,0.0,0.0
1696292189363,0.16992188,-0.111328125,-0.9824219,0.3125,0.4375,0.03125,0.0,0.0,0.0
1696292189389,0.15820312,-0.11035156,-0.9863281,0.125,0.375,-0.09375,0.0,0.0,0.0
1696292189454,0.171875,-0.103515625,-0.98828125,0.1875,0.3125,-0.09375,0.0,0.0,0.0
1696292189483,0.16796875,-0.11230469,-0.9716797,0.3125,0.3125,0.09375,0.0,0.0,0.0
1696292189507,0.171875,-0.11621094,-0.9765625,0.1875,0.25,-0.03125,0.0,0.0,0.0
1696292189570,0.16894531,-0.107421875,-0.9863281,0.25,0.25,-0.03125,0.0,0.0,0.0
1696292189604,0.17285156,-0.11035156,-0.9765625,0.125,0.5,-0.15625,0.0,0.0,0.0
1696292189636,0.17285156,-0.109375,-0.9941406,0.125,0.375,-0.03125,0.0,0.0,0.0
1696292189728,0.16992188,-0.11328125,-0.97558594,0.1875,0.3125,-0.03125,0.0,0.0,0.0
1696292189732,0.16894531,-0.10546875,-0.98339844,0.3125,0.1875,0.03125,0.0,0.0,0.0
1696292189749,0.17089844,-0.115234375,-0.97558594,0.3125,0.3125,0.09375,-12.125,-24.5625,-256.875
1696292189809,0.16601562,-0.1015625,-0.984375,0.25,0.3125,-0.03125,0.0,0.0,0.0
1696292189839,0.17285156,-0.111328125,-0.9785156,0.125,0.125,-0.03125,0.0,0.0,0.0
1696292189867,0.17089844,-0.10449219,-0.9873047,0.0,0.0625,-0.03125,0.0,0.0,0.0
1696292189900,0.16992188,-0.09863281,-0.9794922,0.0625,0.1875,-0.09375,0.0,0.0,0.0
1696292189964,0.16894531,-0.10644531,-0.97265625,0.0625,0.3125,-0.15625,0.0,0.0,0.0
1696292189988,0.16992188,-0.10253906,-0.99316406,0.25,0.1875,-0.15625,0.0,0.0,0.0
1696292190019,0.17089844,-0.11328125,-0.9863281,0.125,0.125,-0.03125,0.0,0.0,0.0
1696292190079,0.16992188,-0.115234375,-0.9794922,0.125,0.3125,-0.15625,0.0,0.0,0.0
1696292190109,0.17480469,-0.115234375,-0.9980469,0.1875,0.1875,-0.09375,0.0,0.0,0.0
1696292190138,0.16503906,-0.10546875,-0.9824219,0.0625,0.0625,-0.09375,0.0,0.0,0.0
1696292190205,0.17382812,-0.11035156,-0.9951172,-0.0625,0.125,-0.09375,0.0,0.0,0.0
1696292190228,0.17382812,-0.115234375,-0.97753906,0.125,0.3125,-0.15625,0.0,0.0,0.0
1696292190288,0.17480469,-0.111328125,-0.97558594,0.25,0.5,-0.15625,-10.8125,-24.4375,-257.75
1696292190323,0.17773438,-0.111328125,-0.99316406,0.125,0.3125,-0.15625,0.0,0.0,0.0
1696292190350,0.17089844,-0.11035156,-0.984375,0.25,0.25,-0.09375,0.0,0.0,0.0
1696292190387,0.17871094,-0.10839844,-0.9814453,0.1875,0.1875,-0.09375,0.0,0.0,0.0
1696292190441,0.17089844,-0.1015625,-0.98828125,-0.0625,0.125,-0.09375,0.0,0.0,0.0
1696292190473,0.17382812,-0.119140625,-0.98828125,0.0,0.0,-0.09375,0.0,0.0,0.0
1696292190501,0.16992188,-0.10546875,-0.9970703,0.125,0.125,-0.09375,0.0,0.0,0.0
1696292190563,0.17285156,-0.103515625,-0.9863281,0.0625,0.0625,-0.09375,0.0,0.0,0.0
1696292190587,0.17089844,-0.10839844,-0.9873047,0.125,0.25,-0.15625,0.0,0.0,0.0
1696292190650,0.17675781,-0.107421875,-0.99121094,0.125,0.0,-0.21875,0.0,0.0,0.0
1696292190684,0.17773438,-0.10839844,-0.99316406,0.0625,-0.21875,-0.03125,0.0,0.0,0.0
1696292190708,0.17285156,-0.111328125,-0.97265625,0.0,-0.03125,-0.09375,0.0,0.0,0.0
1696292190739,0.1640625,-0.10644531,-0.9824219,0.0,0.1875,-0.28125,-10.625,-24.5625,-258.9375
1696292190799,0.16894531,-0.111328125,-0.9814453,0.0625,0.0,-0.03125,0.0,0.0,0.0
1696292190835,0.17089844,-0.111328125,-0.96972656,0.0625,-0.03125,-0.03125,0.0,0.0,0.0
1696292190860,0.17285156,-0.10546875,-0.98339844,0.0625,0.0625,-0.09375,0.0,0.0,0.0
1696292190921,0.17480469,-0.111328125,-0.984375,0.0625,0.125,-0.09375,0.0,0.0,0.0
1696292190951,0.16308594,-0.11425781,-0.96191406,0.125,0.25,-0.09375,0.0,0.0,0.0
1696292190979,0.17382812,-0.111328125,-0.98339844,0.0625,0.1875,-0.15625,0.0,0.0,0.0
1696292191044,0.17578125,-0.10644531,-0.99316406,0.0,-0.03125,-0.15625,0.0,0.0,0.0
1696292191069,0.17871094,-0.12207031,-1.0009766,0.0625,0.125,-0.09375,0.0,0.0,0.0
1696292191105,0.17578125,-0.119140625,-0.9736328,0.0,0.0625,-0.09375,0.0,0.0,0.0
1696292191158,0.17480469,-0.103515625,-0.9863281,-0.125,-0.09375,-0.09375,0.0,0.0,0.0
1696292191191,0.17382812,-0.103515625,-0.9863281,0.0,-0.03125,0.03125,0.0,0.0,0.0
1696292191219,0.16699219,-0.10449219,-0.9873047,0.0625,0.0,-0.09375,0.0,0.0,0.0
1696292191279,0.17382812,-0.10449219,-0.9814453,0.0,0.125,-0.03125,-12.0,-24.6875,-258.0625
1696292191308,0.1640625,-0.10546875,-0.9921875,0.0625,-0.09375,-0.03125,0.0,0.0,0.0
1696292191342,0.1796875,-0.10839844,-0.9921875,0.0625,-0.09375,-0.03125,0.0,0.0,0.0
1696292191416,0.17480469,-0.1015625,-0.9921875,-0.0625,-0.15625,-0.15625,0.0,0.0,0.0
1696292191444,0.16601562,-0.11035156,-0.97753906,-0.125,0.0,-0.15625,0.0,0.0,0.0
1696292191465,0.17480469,-0.11035156,-0.9824219,0.0,0.0625,-0.21875,0.0,0.0,0.0
1696292191519,0.16796875,-0.11328125,-0.98535156,0.0625,-0.03125,-0.09375,0.0,0.0,0.0
1696292191547,0.17578125,-0.11230469,-0.98828125,0.0625,-0.03125,-0.15625,0.0,0.0,0.0
1696292191596,0.17089844,-0.099609375,-0.99609375,0.0,-0.09375,-0.03125,0.0,0.0,0.0
1696292191643,0.16992188,-0.10839844,-0.9785156,0.0,0.3125,-0.21875,0.0,0.0,0.0
1696292191667,0.16992188,-0.103515625,-0.9902344,0.125,0.1875,-0.09375,0.0,0.0,0.0
1696292191697,0.16894531,-0.11328125,-0.9824219,-0.0625,0.0625,-0.09375,0.0,0.0,0.0
1696292191760,0.1796875,-0.11035156,-0.9970703,0.0625,-0.09375,-0.03125,-11.25,-24.4375,-258.5
1696292191788,0.17480469,-0.09472656,-0.9921875,-0.0625,-0.03125,-0.03125,0.0,0.0,0.0
1696292191823,0.16894531,-0.11230469,-0.9765625,-0.125,0.125,-0.15625,0.0,0.0,0.0
1696292191878,0.17675781,-0.10546875,-0.99316406,0.0,-0.03125,-0.09375,0.0,0.0,0.0
1696292191910,0.16796875,-0.11230469,-0.9863281,0.125,0.0,-0.15625,0.0,0.0,0.0
1696292191939,0.1640625,-0.11230469,-0.9814453,-0.0625,0.0,-0.09375,0.0,0.0,0.0
1696292191997,0.17578125,-0.11230469,-0.9892578,0.0625,0.125,-0.15625,0.0,0.0,0.0
1696292192029,0.17089844,-0.111328125,-0.9873047,0.0,-0.09375,0.03125,0.0,0.0,0.0
1696292192061,0.17480469,-0.107421875,-0.9941406,0.0,-0.15625,-0.15625,0.0,0.0,0.0
1696292192120,0.16503906,-0.109375,-0.9746094,0.0625,-0.03125,0.03125,0.0,0.0,0.0
1696292192156,0.17382812,-0.107421875,-0.9814453,0.0625,0.125,-0.09375,0.0,0.0,0.0
1696292192179,0.16699219,-0.11035156,-0.98046875,0.0625,0.0625,-0.03125,0.0,0.0,0.0
1696292192240,0.17578125,-0.109375,-0.9902344,0.0,-0.03125,-0.09375,0.0,0.0,0.0
1696292192268,0.16894531,-0.109375,-0.99316406,0.0,0.0,-0.15625,-12.4375,-25.3125,-256.875
1696292192301,0.16699219,-0.1171875,-0.97753906,0.125,0.25,-0.15625,0.0,0.0,0.0
1696292192359,0.17089844,-0.10644531,-0.99609375,-0.0625,0.0,-0.09375,0.0,0.0,0.0
1696292192389,0.16699219,-0.107421875,-0.9794922,0.0625,0.0,-0.09375,0.0,0.0,0.0
1696292192417,0.16601562,-0.103515625,-0.9941406,0.0625,-0.09375,-0.09375,0.0,0.0,0.0
1696292192488,0.16796875,-0.1171875,-0.98339844,0.0625,-0.09375,-0.15625,0.0,0.0,0.0
1696292192508,0.16015625,-0.11035156,-0.9863281,0.0625,-0.09375,-0.09375,0.0,0.0,0.0
1696292192542,0.17382812,-0.10644531,-0.99121094,0.0625,-0.09375,0.09375,0.0,0.0,0.0
1696292192599,0.16308594,-0.11621094,-0.9814453,0.0625,-0.03125,-0.03125,0.0,0.0,0.0
1696292192631,0.17382812,-0.107421875,-0.9873047,0.0625,0.0625,-0.09375,0.0,0.0,0.0
1696292192658,0.16894531,-0.10058594,-0.9824219,0.1875,-0.03125,0.03125,0.0,0.0,0.0
1696292192721,0.17773438,-0.11035156,-0.9863281,0.125,-0.09375,0.03125,0.0,0.0,0.0
1696292192750,0.16601562,-0.11230469,-0.9785156,-0.125,-0.03125,-0.03125,-12.125,-25.3125,-257.3125
1696292192778,0.1640625,-0.10449219,-0.9785156,0.0,-0.03125,-0.21875,0.0,0.0,0.0
1696292192842,0.16308594,-0.11816406,-0.984375,-0.0625,0.0625,-0.03125,0.0,0.0,0.0
1696292192877,0.16992188,-0.11328125,-0.98828125,0.0,-0.21875,-0.03125,0.0,0.0,0.0
1696292192927,0.16601562,-0.10644531,-0.9892578,0.0,-0.03125,-0.15625,0.0,0.0,0.0
1696292192960,0.16210938,-0.10253906,-0.98828125,0.0,0.125,-0.03125,0.0,0.0,0.0
1696292192991,0.17578125,-0.109375,-0.98046875,0.0625,0.125,-0.15625,0.0,0.0,0.0
1696292193019,0.17480469,-0.107421875,-0.9824219,0.0625,-0.03125,-0.09375,0.0,0.0,0.0
1696292193084,0.16601562,-0.11230469,-0.9863281,0.25,0.125,-0.03125,0.0,0.0,0.0
1696292193111,0.16796875,-0.10644531,-0.97265625,0.125,0.25,-0.03125,0.0,0.0,0.0
1696292193138,0.16796875,-0.10839844,-0.9873047,0.0625,0.3125,-0.09375,0.0,0.0,0.0
1696292193199,0.16015625,-0.109375,-0.9863281,0.0,0.125,-0.09375,0.0,0.0,0.0
1696292193265,0.17285156,-0.10644531,-0.9765625,0.125,0.1875,-0.15625,0.0,0.0,0.0
1696292193269,0.17285156,-0.107421875,-0.99121094,0.3125,0.5,-0.15625,-10.0625,-26.0625,-258.375
1696292193318,0.17285156,-0.109375,-0.9824219,0.375,0.4375,-0.09375,0.0,0.0,0.0
1696292193350,0.16796875,-0.109375,-0.9746094,0.4375,0.375,-0.03125,0.0,0.0,0.0
1696292193379,0.16992188,-0.119140625,-0.9736328,0.3125,0.0625,-0.09375,0.0,0.0,0.0
1696292193441,0.16796875,-0.107421875,-0.9785156,0.0625,0.1875,-0.09375,0.0,0.0,0.0
1696292193472,0.16796875,-0.103515625,-0.97265625,0.0,0.1875,-0.28125,0.0,0.0,0.0
1696292193499,0.16992188,-0.10839844,-0.98828125,-0.0625,0.0,-0.09375,0.0,0.0,0.0
1696292193565,0.17285156,-0.11035156,-0.99316406,0.25,0.1875,-0.09375,0.0,0.0,0.0
1696292193588,0.17871094,-0.115234375,-0.97753906,0.25,0.1875,-0.09375,0.0,0.0,0.0
1696292193618,0.16796875,-0.11230469,-0.9785156,0.125,0.6875,0.03125,0.0,0.0,0.0
1696292193679,0.16796875,-0.11035156,-0.9873047,0.125,0.4375,-0.03125,0.0,0.0,0.0
1696292193710,0.17480469,-0.10644531,-0.9902344,0.0,0.125,-0.21875,0.0,0.0,0.0
1696292193740,0.17382812,-0.11035156,-0.9941406,0.0625,0.125,-0.09375,-11.6875,-24.25,-258.625
1696292193799,0.17089844,-0.11621094,-0.99316406,0.125,0.1875,-0.15625,0.0,0.0,0.0
1696292193828,0.18164062,-0.107421875,-0.98535156,0.125,0.3125,-0.15625,0.0,0.0,0.0
1696292193858,0.16699219,-0.11425781,-0.99609375,0.0625,0.125,-0.15625,0.0,0.0,0.0
1696292193922,0.16992188,-0.115234375,-0.9814453,0.0625,0.0,0.03125,0.0,0.0,0.0
1696292193948,0.16699219,-0.11328125,-0.97265625,0.125,0.375,-0.03125,0.0,0.0,0.0
1696292193981,0.17285156,-0.11621094,-0.9765625,0.25,0.25,-0.03125,0.0,0.0,0.0
1696292194045,0.17089844,-0.107421875,-0.9824219,0.1875,0.0625,-0.09375,0.0,0.0,0.0
1696292194068,0.17480469,-0.119140625,-0.9785156,0.125,0.25,-0.15625,0.0,0.0,0.0
1696292194104,0.17578125,-0.11621094,-0.99121094,0.125,0.25,-0.09375,0.0,0.0,0.0
1696292194161,0.171875,-0.10546875,-0.98046875,0.125,0.4375,-0.03125,0.0,0.0,0.0
1696292194189,0.17382812,-0.1171875,-0.9785156,0.125,0.125,-0.15625,0.0,0.0,0.0
1696292194250,0.17089844,-0.11035156,-0.9814453,-0.0625,0.125,-0.15625,0.0,0.0,0.0
1696292194281,0.16601562,-0.109375,-0.98535156,0.0625,0.0,-0.03125,-9.75,-24.4375,-256.6875
1696292194313,0.17773438,-0.10839844,-0.9902344,0.125,0.3125,-0.15625,0.0,0.0,0.0
1696292194339,0.17382812,-0.10839844,-0.9765625,0.125,0.1875,-0.15625,0.0,0.0,0.0
1696292194400,0.17382812,-0.107421875,-0.9814453,0.1875,0.25,-0.09375,0.0,0.0,0.0
1696292194430,0.16796875,-0.11230469,-0.9824219,0.0625,0.0,-0.09375,0.0,0.0,0.0
1696292194459,0.16796875,-0.109375,-0.97558594,0.125,0.4375,-0.15625,0.0,0.0,0.0
1696292194523,0.171875,-0.111328125,-0.9980469,0.0625,0.1875,-0.03125,0.0,0.0,0.0
1696292194550,0.17578125,-0.115234375,-0.9824219,0.0625,-0.03125,-0.09375,0.0,0.0,0.0
1696292194579,0.16796875,-0.10644531,-0.9765625,0.0625,-0.09375,-0.15625,0.0,0.0,0.0
1696292194639,0.16796875,-0.11328125,-1.0019531,0.0625,0.125,-0.09375,0.0,0.0,0.0
1696292194674,0.16210938,-0.10644531,-0.9892578,0.125,0.1875,-0.15625,0.0,0.0,0.0
1696292194699,0.16992188,-0.10839844,-0.96777344,0.0,-0.09375,-0.21875,0.0,0.0,0.0
1696292194760,0.17578125,-0.1171875,-0.98535156,-0.125,0.0625,-0.09375,-11.25,-26.1875,-257.4375
1696292194793,0.18652344,-0.1015625,-0.99609375,0.0625,0.125,-0.15625,0.0,0.0,0.0
1696292194819,0.1640625,-0.11035156,-0.9892578,0.125,0.125,-0.03125,0.0,0.0,0.0
1696292194879,0.1796875,-0.12109375,-0.9970703,0.125,-0.09375,-0.03125,0.0,0.0,0.0
1696292194913,0.1796875,-0.115234375,-1.0,0.0625,-0.15625,-0.09375,0.0,0.0,0.0
1696292194939,0.17871094,-0.11425781,-0.9941406,0.0625,-0.15625,-0.03125,0.0,0.0,0.0
1696292194999,0.17382812,-0.10546875,-0.9794922,0.0,0.125,-0.09375,0.0,0.0,0.0
1696292195029,0.16992188,-0.11425781,-0.9873047,-0.125,0.125,-0.09375,0.0,0.0,0.0
1696292195059,0.16894531,-0.109375,-0.9921875,0.0,-0.15625,0.09375,0.0,0.0,0.0
1696292195119,0.16113281,-0.11035156,-0.9941406,-0.125,-0.09375,-0.09375,0.0,0.0,0.0
1696292195148,0.16601562,-0.111328125,-0.99121094,-0.125,-0.09375,-0.09375,0.0,0.0,0.0
1696292195215,0.17089844,-0.10644531,-0.9824219,0.0,-0.09375,0.03125,0.0,0.0,0.0
1696292195239,0.16796875,-0.11425781,-0.9814453,-0.0625,-0.28125,-0.03125,0.0,0.0,0.0
1696292195274,0.17089844,-0.1171875,-0.984375,-0.125,-0.15625,-0.15625,-12.625,-25.4375,-257.4375
1696292195303,0.17089844,-0.10449219,-0.9863281,-0.0625,0.0,0.03125,0.0,0.0,0.0
1696292195361,0.16503906,-0.11230469,-0.9892578,0.0,0.0,-0.15625,0.0,0.0,0.0
1696292195389,0.16699219,-0.10058594,-0.9824219,0.0,-0.15625,-0.03125,0.0,0.0,0.0
1696292195420,0.16796875,-0.119140625,-0.9824219,-0.1875,-0.15625,-0.09375,0.0,0.0,0.0
1696292195481,0.17675781,-0.111328125,-0.9746094,0.0,-0.03125,-0.09375,0.0,0.0,0.0
1696292195515,0.17285156,-0.109375,-0.9814453,0.0625,-0.15625,-0.03125,0.0,0.0,0.0
1696292195543,0.16992188,-0.107421875,-0.9873047,0.0625,0.0,-0.09375,0.0,0.0,0.0
1696292195601,0.16113281,-0.10644531,-0.9970703,0.0,-0.03125,-0.09375,0.0,0.0,0.0
1696292195637,0.17285156,-0.11035156,-0.9794922,0.0,0.0625,-0.03125,0.0,0.0,0.0
1696292195658,0.17382812,-0.11621094,-0.984375,0.0625,0.25,-0.15625,0.0,0.0,0.0
1696292195721,0.17675781,-0.107421875,-0.98046875,0.0625,-0.15625,-0.09375,0.0,0.0,0.0
1696292195752,0.16699219,-0.10839844,-0.9794922,0.0625,-0.03125,-0.09375,-12.625,-24.4375,-257.75
1696292195779,0.17285156,-0.10644531,-0.98828125,0.0,-0.03125,0.03125,0.0,0.0,0.0
1696292195840,0.16503906,-0.109375,-0.98339844,0.0,0.0,-0.03125,0.0,0.0,0.0
1696292195870,0.18066406,-0.11035156,-0.9824219,0.0,0.0,0.09375,0.0,0.0,0.0
1696292195908,0.17285156,-0.115234375,-0.98339844,0.0,-0.03125,-0.09375,0.0,0.0,0.0
1696292195959,0.16699219,-0.111328125,-0.97753906,-0.0625,-0.03125,0.03125,0.0,0.0,0.0
1696292195998,0.17480469,-0.103515625,-0.9892578,0.0625,0.0625,0.03125,0.0,0.0,0.0
1696292196019,0.16113281,-0.107421875,-0.9746094,0.0625,0.0,-0.15625,0.0,0.0,0.0
1696292196081,0.17089844,-0.10546875,-0.9746094,0.0,-0.21875,-0.03125,0.0,0.0,0.0
1696292196109,0.16992188,-0.11035156,-0.97265625,-0.0625,0.0625,-0.15625,0.0,0.0,0.0
1696292196143,0.17382812,-0.10058594,-0.984375,-0.125,0.0625,-0.03125,0.0,0.0,0.0
1696292196202,0.17382812,-0.11035156,-0.99121094,0.0625,0.0,-0.09375,0.0,0.0,0.0
1696292196230,0.16601562,-0.11425781,-0.9892578,0.0625,-0.09375,-0.09375,0.0,0.0,0.0
1696292196259,0.16894531,-0.109375,-0.9794922,0.0625,0.125,-0.09375,-11.125,-24.25,-257.3125
1696292196321,0.17285156,-0.099609375,-0.984375,0.125,0.4375,-0.09375,0.0,0.0,0.0
1696292196347,0.16894531,-0.10839844,-0.9814453,0.125,0.1875,-0.15625,0.0,0.0,0.0
1696292196383,0.16503906,-0.103515625,-0.97753906,0.0625,-0.03125,-0.03125,0.0,0.0,0.0
1696292196440,0.15722656,-0.11328125,-0.984375,0.125,-0.09375,0.03125,0.0,0.0,0.0
1696292196476,0.17089844,-0.111328125,-0.9921875,0.0,0.0625,-0.15625,0.0,0.0,0.0
1696292196500,0.17285156,-0.103515625,-0.9941406,0.0,0.1875,0.03125,0.0,0.0,0.0
1696292196561,0.17480469,-0.10839844,-0.98339844,0.0,-0.09375,-0.03125,0.0,0.0,0.0
1696292196589,0.16601562,-0.107421875,-0.98339844,0.0625,0.125,-0.03125,0.0,0.0,0.0
1696292196619,0.16894531,-0.10839844,-0.97558594,0.125,0.1875,-0.03125,0.0,0.0,0.0
1696292196678,0.16992188,-0.10839844,-0.9785156,0.0625,0.0,0.03125,0.0,0.0,0.0
1696292196708,0.16015625,-0.103515625,-0.98535156,0.0625,0.0,-0.15625,0.0,0.0,0.0
1696292196740,0.171875,-0.10546875,-0.984375,0.0,0.0,-0.03125,-12.3125,-24.6875,-257.75
1696292196832,0.16308594,-0.10546875,-0.99609375,0.0,0.0,-0.09375,0.0,0.0,0.0
1696292196834,0.171875,-0.111328125,-0.9814453,0.0625,0.125,-0.09375,0.0,0.0,0.0
1696292196861,0.17578125,-0.11230469,-0.9873047,0.1875,0.125,-0.03125,0.0,0.0,0.0
1696292196922,0.16894531,-0.109375,-0.9716797,0.0625,0.1875,-0.09375,0.0,0.0,0.0
1696292196947,0.16796875,-0.1171875,-0.99316406,0.125,0.625,-0.09375,0.0,0.0,0.0
1696292196983,0.1796875,-0.111328125,-0.9941406,0.1875,0.5,-0.09375,0.0,0.0,0.0
1696292197070,0.1640625,-0.10644531,-0.98046875,0.3125,0.1875,-0.03125,0.0,0.0,0.0
1696292197075,0.16796875,-0.11621094,-0.99316406,0.1875,0.3125,-0.15625,0.0,0.0,0.0
1696292197099,0.16894531,-0.11230469,-0.98339844,0.125,0.5,-0.09375,0.0,0.0,0.0
1696292197159,0.1796875,-0.11425781,-0.9892578,0.1875,0.3125,-0.09375,0.0,0.0,0.0
1696292197188,0.17773438,-0.115234375,-0.9921875,0.125,0.1875,-0.09375,0.0,0.0,0.0
1696292197219,0.16699219,-0.11230469,-0.99902344,0.0625,0.0,-0.09375,0.0,0.0,0.0
1696292197283,0.17871094,-0.10644531,-0.9873047,0.125,0.25,-0.09375,-11.25,-24.125,-257.4375
1696292197310,0.16699219,-0.10644531,-0.99121094,0.1875,0.3125,-0.21875,0.0,0.0,0.0
1696292197340,0.16894531,-0.11328125,-0.96875,0.3125,0.25,-0.03125,0.0,0.0,0.0
1696292197404,0.17871094,-0.11328125,-0.9785156,0.125,0.1875,-0.09375,0.0,0.0,0.0
1696292197429,0.17480469,-0.10644531,-0.98046875,0.0625,0.125,-0.03125,0.0,0.0,0.0
1696292197500,0.17089844,-0.11230469,-0.9667969,0.125,0.25,-0.09375,0.0,0.0,0.0
1696292197519,0.16503906,-0.111328125,-0.9902344,0.25,0.1875,-0.15625,0.0,0.0,0.0
1696292197559,0.17285156,-0.11035156,-0.9873047,0.125,0.1875,-0.09375,0.0,0.0,0.0
1696292197578,0.17675781,-0.11328125,-0.9814453,0.0625,0.375,-0.21875,0.0,0.0,0.0
1696292197643,0.17871094,-0.10546875,-0.9892578,0.1875,0.375,-0.15625,0.0,0.0,0.0
1696292197671,0.17675781,-0.11425781,-0.9814453,0.125,0.25,-0.03125,0.0,0.0,0.0
1696292197700,0.1796875,-0.11230469,-0.9814453,0.3125,0.1875,-0.03125,0.0,0.0,0.0
1696292197767,0.16992188,-0.11425781,-0.9863281,0.25,0.3125,-0.03125,-11.375,-25.0,-257.625
1696292197788,0.16308594,-0.111328125,-0.9863281,0.25,0.375,-0.09375,0.0,0.0,0.0
1696292197821,0.16992188,-0.11328125,-0.98046875,0.125,0.3125,-0.09375,0.0,0.0,0.0
1696292197883,0.17285156,-0.1171875,-0.99902344,0.125,0.1875,-0.03125,0.0,0.0,0.0
1696292197928,0.16894531,-0.111328125,-0.98339844,0.0625,0.125,0.09375,0.0,0.0,0.0
1696292197939,0.17578125,-0.11230469,-0.9814453,0.125,0.3125,-0.15625,0.0,0.0,0.0
1696292198005,0.17285156,-0.11035156,-0.9794922,0.1875,0.1875,-0.09375,0.0,0.0,0.0
1696292198029,0.17285156,-0.11230469,-0.99902344,0.1875,0.0,-0.15625,0.0,0.0,0.0
1696292198061,0.16894531,-0.111328125,-0.9785156,0.125,0.1875,0.03125,0.0,0.0,0.0
1696292198121,0.17578125,-0.115234375,-0.96777344,0.0625,-0.03125,-0.09375,0.0,0.0,0.0
1696292198153,0.16308594,-0.10644531,-0.984375,0.125,0.25,-0.15625,0.0,0.0,0.0
1696292198182,0.17773438,-0.107421875,-0.9873047,0.0625,0.0,0.03125,0.0,0.0,0.0
1696292198239,0.17382812,-0.11425781,-0.98046875,0.125,0.25,-0.15625,0.0,0.0,0.0
1696292198269,0.16015625,-0.107421875,-0.99316406,0.125,0.25,-0.21875,-9.75,-23.6875,-257.0
1696292198302,0.16894531,-0.1171875,-0.98339844,0.0625,0.1875,-0.15625,0.0,0.0,0.0
1696292198360,0.17480469,-0.10546875,-0.9863281,0.0,0.125,-0.03125,0.0,0.0,0.0
1696292198388,0.16894531,-0.11816406,-0.9921875,0.0625,0.0625,-0.03125,0.0,0.0,0.0
1696292198418,0.16699219,-0.111328125,-0.98535156,0.0625,0.125,-0.09375,0.0,0.0,0.0
1696292198482,0.17480469,-0.111328125,-0.9892578,0.0,0.25,-0.03125,0.0,0.0,0.0
1696292198512,0.17480469,-0.10449219,-0.9765625,0.0625,-0.03125,-0.03125,0.0,0.0,0.0
1696292198542,0.17871094,-0.107421875,-0.99316406,0.0625,0.0,-0.03125,0.0,0.0,0.0
1696292198600,0.18164062,-0.11328125,-0.99316406,0.0625,0.0625,-0.03125,0.0,0.0,0.0
1696292198629,0.16308594,-0.10839844,-0.9941406,0.0625,0.0625,-0.03125,0.0,0.0,0.0
1696292198661,0.17285156,-0.1171875,-0.98535156,0.0625,0.0625,-0.03125,0.0,0.0,0.0
1696292198720,0.17675781,-0.10644531,-0.9873047,0.0625,0.0,-0.09375,0.0,0.0,0.0
1696292198751,0.16992188,-0.10839844,-0.9863281,0.0625,0.3125,-0.15625,-12.0,-24.6875,-258.0625
1696292198780,0.17480469,-0.10839844,-0.98046875,0.0625,0.125,-0.03125,0.0,0.0,0.0
1696292198809,0.17675781,-0.111328125,-0.9892578,0.125,0.1875,-0.09375,0.0,0.0,0.0
1696292198872,0.17871094,-0.10546875,-0.99609375,0.0,-0.03125,-0.09375,0.0,0.0,0.0
1696292198904,0.16894531,-0.11230469,-0.9765625,-0.0625,0.0,-0.03125,0.0,0.0,0.0
1696292198930,0.17089844,-0.11230469,-0.9873047,-0.0625,0.3125,-0.15625,0.0,0.0,0.0
1696292198989,0.17675781,-0.107421875,-0.98339844,-0.125,0.0,-0.09375,0.0,0.0,0.0
1696292199020,0.16992188,-0.11035156,-0.9794922,-0.0625,-0.09375,-0.03125,0.0,0.0,0.0
1696292199050,0.16699219,-0.11621094,-0.9970703,-0.0625,-0.09375,-0.03125,0.0,0.0,0.0
1696292199107,0.17382812,-0.111328125,-0.9814453,0.0,0.125,-0.09375,0.0,0.0,0.0
1696292199140,0.16992188,-0.115234375,-0.9863281,0.0,-0.09375,-0.03125,0.0,0.0,0.0
1696292199179,0.16699219,-0.11230469,-0.98339844,0.0625,-0.15625,-0.09375,0.0,0.0,0.0
1696292199232,0.17675781,-0.11328125,-0.98339844,0.0625,-0.03125,-0.09375,0.0,0.0,0.0
1696292199263,0.17382812,-0.11230469,-0.9814453,0.0625,0.125,-0.03125,-11.375,-23.5,-258.9375
1696292199290,0.16894531,-0.10546875,-0.9892578,-0.0625,0.0625,-0.09375,0.0,0.0,0.0
1696292199349,0.17382812,-0.10644531,-0.9873047,-0.0625,-0.09375,-0.09375,0.0,0.0,0.0
1696292199385,0.16894531,-0.11425781,-0.99121094,-0.1875,-0.09375,-0.09375,0.0,0.0,0.0
1696292199412,0.17089844,-0.111328125,-0.99609375,-0.0625,0.0,0.03125,0.0,0.0,0.0
1696292199468,0.16992188,-0.10644531,-0.98535156,0.0,0.0625,-0.03125,0.0,0.0,0.0
1696292199504,0.16992188,-0.109375,-0.9765625,0.0,-0.03125,-0.09375,0.0,0.0,0.0
1696292199531,0.16601562,-0.10644531,-0.9716797,0.0,-0.09375,-0.03125,0.0,0.0,0.0
1696292199594,0.17089844,-0.11035156,-0.9980469,-0.09375,0.125,-0.09375,0.0,0.0,0.0
1696292199629,0.17382812,-0.10546875,-0.984375,0.03125,0.0,-0.03125,0.0,0.0,0.0
1696292199648,0.17285156,-0.11328125,-0.97753906,-0.03125,0.0,-0.03125,0.0,0.0,0.0
1696292199718,0.171875,-0.11035156,-1.0009766,0.03125,-0.09375,0.0625,0.0,0.0,0.0
1696292199767,0.1796875,-0.103515625,-0.97753906,0.03125,-0.21875,-0.09375,-10.8125,-24.125,-257.4375
1696292199769,0.16894531,-0.11230469,-0.98046875,0.09375,0.125,-0.09375,0.0,0.0,0.0
1696292199833,0.16210938,-0.11425781,-0.9892578,0.03125,0.0625,-0.03125,0.0,0.0,0.0
1696292199859,0.17382812,-0.111328125,-0.9794922,-0.03125,-0.15625,-0.03125,0.0,0.0,0.0
1696292199891,0.17382812,-0.11328125,-0.98535156,0.09375,0.125,-0.03125,0.0,0.0,0.0
1696292199950,0.16992188,-0.10253906,-0.98828125,0.03125,0.0625,0.03125,0.0,0.0,0.0
1696292199994,0.16601562,-0.115234375,-0.9814453,0.03125,-0.0625,-0.03125,0.0,0.0,0.0
1696292200011,0.16894531,-0.11621094,-0.9892578,-0.03125,-0.0625,0.03125,0.0,0.0,0.0
1696292200074,0.17285156,-0.107421875,-0.9794922,-0.09375,-0.0625,0.03125,0.0,0.0,0.0
1696292200099,0.16601562,-0.119140625,-0.9892578,0.03125,0.125,-0.09375,0.0,0.0,0.0
1696292200129,0.17382812,-0.1015625,-0.9873047,0.03125,0.0,-0.09375,0.0,0.0,0.0
1696292200189,0.16210938,-0.115234375,-0.9824219,0.03125,-0.09375,0.03125,0.0,0.0,0.0
1696292200223,0.16699219,-0.109375,-0.9892578,-0.15625,0.0625,-0.03125,0.0,0.0,0.0
1696292200249,0.17285156,-0.10546875,-0.95703125,0.03125,0.1875,-0.03125,-12.0,-22.9375,-258.8125
1696292200309,0.16503906,-0.10839844,-0.9785156,-0.09375,0.0,0.03125,0.0,0.0,0.0
1696292200339,0.16308594,-0.111328125,-0.9746094,0.09375,0.0,0.0625,0.0,0.0,0.0
1696292200369,0.171875,-0.10644531,-0.98339844,0.03125,0.0,0.03125,0.0,0.0,0.0
1696292200436,0.17675781,-0.11328125,-0.98828125,0.03125,0.0625,-0.09375,0.0,0.0,0.0
1696292200461,0.17773438,-0.107421875,-0.9736328,0.09375,0.25,-0.03125,0.0,0.0,0.0
1696292200488,0.16308594,-0.11621094,-0.9814453,0.03125,0.0,0.03125,0.0,0.0,0.0
1696292200549,0.16894531,-0.11035156,-0.9746094,0.09375,0.0625,0.03125,0.0,0.0,0.0
1696292200584,0.17285156,-0.11035156,-0.9824219,0.15625,0.1875,0.03125,0.0,0.0,0.0
1696292200609,0.16992188,-0.11035156,-0.98339844,0.03125,-0.09375,0.03125,0.0,0.0,0.0
1696292200672,0.16796875,-0.103515625,-0.9716797,0.03125,-0.09375,-0.03125,0.0,0.0,0.0
1696292200709,0.17578125,-0.10449219,-0.9873047,-0.09375,-0.0625,-0.03125,0.0,0.0,0.0
1696292200730,0.16503906,-0.11425781,-0.99609375,0.09375,0.125,0.0625,0.0,0.0,0.0
1696292200790,0.16503906,-0.11035156,-0.97753906,0.34375,0.125,-0.03125,-11.125,-24.5625,-257.625
1696292200823,0.16796875,-0.11035156,-0.99121094,0.21875,0.0625,0.03125,0.0,0.0,0.0
1696292200852,0.16894531,-0.111328125,-0.9765625,0.09375,0.25,0.03125,0.0,0.0,0.0
1696292200909,0.16699219,-0.10644531,-0.9970703,0.15625,0.625,-0.03125,0.0,0.0,0.0
1696292200939,0.17578125,-0.107421875,-0.98828125,0.15625,0.25,0.03125,0.0,0.0,0.0
1696292200971,0.17480469,-0.11230469,-0.984375,0.15625,0.25,0.0625,0.0,0.0,0.0
1696292201032,0.17089844,-0.11035156,-0.9824219,0.15625,0.125,-0.03125,0.0,0.0,0.0
1696292201064,0.16992188,-0.111328125,-1.0019531,0.09375,0.3125,0.0625,0.0,0.0,0.0
1696292201088,0.16992188,-0.10644531,-0.96777344,0.09375,0.1875,-0.09375,0.0,0.0,0.0
1696292201151,0.17382812,-0.111328125,-0.9814453,0.09375,0.125,-0.03125,0.0,0.0,0.0
1696292201186,0.17089844,-0.115234375,-0.99609375,0.09375,0.1875,-0.15625,0.0,0.0,0.0
1696292201211,0.16992188,-0.111328125,-0.98828125,0.09375,0.3125,-0.09375,0.0,0.0,0.0
1696292201269,0.17089844,-0.11035156,-0.99121094,0.09375,0.125,-0.09375,-11.5625,-24.4375,-259.125
1696292201303,0.17089844,-0.11035156,-0.9814453,0.03125,0.0625,-0.03125,0.0,0.0,0.0
1696292201329,0.17089844,-0.11035156,-0.9892578,0.03125,0.0625,-0.09375,0.0,0.0,0.0
1696292201389,0.17089844,-0.103515625,-0.9746094,0.09375,0.375,-0.09375,0.0,0.0,0.0
1696292201418,0.16796875,-0.11035156,-0.99121094,0.15625,0.1875,-0.09375,0.0,0.0,0.0
1696292201447,0.171875,-0.11035156,-0.96777344,0.09375,0.125,-0.03125,0.0,0.0,0.0
1696292201509,0.17089844,-0.111328125,-0.984375,0.09375,0.1875,0.03125,0.0,0.0,0.0
1696292201546,0.16503906,-0.109375,-0.99316406,0.09375,0.375,-0.03125,0.0,0.0,0.0
1696292201568,0.17089844,-0.111328125,-0.98828125,0.09375,0.3125,-0.15625,0.0,0.0,0.0
1696292201630,0.171875,-0.11230469,-0.9765625,0.09375,0.1875,0.125,0.0,0.0,0.0
1696292201658,0.17578125,-0.11425781,-0.98828125,0.03125,0.0,-0.09375,0.0,0.0,0.0
1696292201688,0.17382812,-0.115234375,-0.9941406,0.09375,0.1875,-0.09375,0.0,0.0,0.0
1696292201751,0.17480469,-0.10839844,-0.9970703,0.09375,0.25,-0.09375,0.0,0.0,0.0
1696292201785,0.17285156,-0.107421875,-0.99316406,0.09375,0.0625,0.03125,-11.5625,-24.125,-258.0625
1696292201810,0.1640625,-0.11621094,-0.97753906,0.28125,0.125,0.03125,0.0,0.0,0.0
1696292201871,0.1796875,-0.111328125,-0.9824219,0.28125,0.3125,-0.03125,0.0,0.0,0.0
1696292201899,0.17871094,-0.10644531,-0.98339844,0.21875,0.25,0.03125,0.0,0.0,0.0
1696292201929,0.16699219,-0.11230469,-0.9902344,-0.09375,0.0625,0.03125,0.0,0.0,0.0
1696292201989,0.17382812,-0.11816406,-0.9873047,-0.15625,0.0,-0.03125,0.0,0.0,0.0
1696292202049,0.16894531,-0.11621094,-0.984375,-0.03125,0.1875,-0.03125,0.0,0.0,0.0
1696292202054,0.17773438,-0.1171875,-0.9814453,0.15625,0.25,0.03125,0.0,0.0,0.0
1696292202108,0.18164062,-0.1171875,-0.98535156,0.09375,-0.0625,0.03125,0.0,0.0,0.0
1696292202138,0.16601562,-0.109375,-0.9824219,0.03125,0.0,0.03125,0.0,0.0,0.0
1696292202169,0.17285156,-0.111328125,-0.9814453,0.09375,0.4375,-0.09375,0.0,0.0,0.0
1696292202245,0.1640625,-0.10253906,-0.99121094,-0.03125,0.3125,-0.09375,0.0,0.0,0.0
1696292202265,0.17773438,-0.10449219,-0.98828125,0.03125,0.0625,-0.03125,-11.5625,-23.6875,-257.75
1696292202287,0.16503906,-0.11425781,-0.99121094,-0.03125,-0.0625,-0.03125,0.0,0.0,0.0
1696292202356,0.17480469,-0.11035156,-0.98828125,-0.03125,0.0625,-0.03125,0.0,0.0,0.0
1696292202379,0.16699219,-0.11328125,-0.97753906,0.09375,0.125,0.03125,0.0,0.0,0.0
1696292202407,0.17480469,-0.12109375,-0.9814453,0.03125,0.0,0.03125,0.0,0.0,0.0
1696292202467,0.17480469,-0.11035156,-0.9814453,0.03125,0.0625,-0.09375,0.0,0.0,0.0
1696292202503,0.16601562,-0.11328125,-0.96777344,-0.03125,-0.09375,-0.09375,0.0,0.0,0.0
1696292202534,0.16503906,-0.11621094,-0.99121094,0.03125,-0.0625,-0.03125,0.0,0.0,0.0
1696292202594,0.18359375,-0.11425781,-0.9785156,-0.03125,-0.0625,-0.09375,0.0,0.0,0.0
1696292202621,0.16796875,-0.10644531,-0.9921875,-0.03125,-0.09375,-0.09375,0.0,0.0,0.0
1696292202649,0.17871094,-0.10546875,-0.9863281,0.09375,0.1875,-0.03125,0.0,0.0,0.0
1696292202711,0.17773438,-0.109375,-0.98046875,0.03125,-0.0625,-0.03125,0.0,0.0,0.0
1696292202742,0.16894531,-0.11425781,-0.9921875,0.03125,0.0625,-0.03125,0.0,0.0,0.0
1696292202770,0.1640625,-0.107421875,-0.9892578,-0.09375,-0.0625,-0.09375,-12.625,-24.6875,-257.75
1696292202830,0.16503906,-0.119140625,-1.0019531,-0.03125,-0.0625,-0.09375,0.0,0.0,0.0
1696292202858,0.17480469,-0.11035156,-0.9921875,0.03125,0.1875,0.03125,0.0,0.0,0.0
1696292202953,0.17285156,-0.107421875,-0.99609375,-0.09375,0.0,0.0625,0.0,0.0,0.0
1696292202957,0.16992188,-0.11230469,-0.9873047,0.03125,-0.0625,-0.03125,0.0,0.0,0.0
1696292202990,0.16894531,-0.111328125,-0.99316406,0.03125,-0.0625,0.03125,0.0,0.0,0.0
1696292203007,0.17089844,-0.115234375,-0.98828125,-0.1875,-0.0625,-0.09375,0.0,0.0,0.0
1696292203070,0.17285156,-0.10253906,-0.97265625,0.03125,-0.09375,-0.03125,0.0,0.0,0.0
1696292203099,0.17285156,-0.11035156,-0.9863281,-0.09375,-0.21875,-0.03125,0.0,0.0,0.0
1696292203128,0.17773438,-0.11425781,-0.9873047,-0.03125,0.0,0.0625,0.0,0.0,0.0
1696292203190,0.17285156,-0.107421875,-0.9736328,-0.03125,0.0625,0.03125,0.0,0.0,0.0
1696292203222,0.16796875,-0.111328125,-1.0019531,0.09375,0.0625,0.0625,0.0,0.0,0.0
1696292203248,0.17285156,-0.111328125,-0.9863281,0.03125,-0.15625,0.03125,-11.25,-24.4375,-258.0625
1696292203308,0.16308594,-0.10839844,-0.9814453,-0.03125,0.0,0.03125,0.0,0.0,0.0
1696292203340,0.17871094,-0.1171875,-0.9902344,-0.03125,0.0625,-0.03125,0.0,0.0,0.0
1696292203368,0.16894531,-0.1171875,-0.9892578,0.03125,-0.0625,0.03125,0.0,0.0,0.0
1696292203428,0.17675781,-0.11230469,-0.9980469,-0.03125,-0.15625,-0.03125,0.0,0.0,0.0
1696292203462,0.17382812,-0.11035156,-0.98828125,-0.15625,0.0,0.03125,0.0,0.0,0.0
1696292203487,0.17285156,-0.11230469,-0.9785156,0.03125,0.25,-0.03125,0.0,0.0,0.0
1696292203548,0.17382812,-0.11328125,-0.9814453,-0.09375,0.0,-0.09375,0.0,0.0,0.0
1696292203582,0.17675781,-0.11425781,-0.9814453,0.03125,-0.15625,-0.03125,0.0,0.0,0.0
1696292203607,0.16796875,-0.10546875,-0.9941406,0.03125,-0.09375,0.0625,0.0,0.0,0.0
1696292203669,0.16894531,-0.111328125,-0.97558594,0.03125,0.0,0.0625,0.0,0.0,0.0
1696292203698,0.17675781,-0.1171875,-0.99121094,0.03125,-0.0625,0.03125,0.0,0.0,0.0
1696292203728,0.16992188,-0.119140625,-0.9736328,0.03125,-0.09375,-0.03125,0.0,0.0,0.0
1696292203796,0.16601562,-0.11328125,-0.9765625,-0.09375,0.0,0.0625,-9.75,-23.6875,-257.75
1696292203820,0.17382812,-0.10839844,-0.9902344,-0.09375,0.125,-0.09375,0.0,0.0,0.0
1696292203847,0.16796875,-0.10546875,-0.9824219,-0.03125,0.0,0.03125,0.0,0.0,0.0
1696292203908,0.17480469,-0.103515625,-0.9873047,0.03125,-0.15625,-0.03125,0.0,0.0,0.0
1696292203940,0.17578125,-0.115234375,-0.9824219,-0.09375,-0.0625,-0.03125,0.0,0.0,0.0
1696292203968,0.17578125,-0.109375,-0.984375,0.03125,0.125,-0.03125,0.0,0.0,0.0
1696292204029,0.17382812,-0.11425781,-0.9921875,0.09375,0.125,-0.03125,0.0,0.0,0.0
1696292204058,0.17675781,-0.109375,-0.9746094,-0.09375,-0.15625,-0.09375,0.0,0.0,0.0
1696292204089,0.16796875,-0.1171875,-0.98339844,-0.09375,-0.09375,0.03125,0.0,0.0,0.0
1696292204147,0.16894531,-0.109375,-0.9873047,0.03125,0.1875,0.03125,0.0,0.0,0.0
1696292204182,0.16992188,-0.12109375,-0.98339844,0.03125,0.0625,-0.03125,0.0,0.0,0.0
1696292204207,0.17480469,-0.12011719,-0.97265625,0.09375,-0.0625,-0.03125,0.0,0.0,0.0
1696292204272,0.17675781,-0.115234375,-0.97265625,0.03125,-0.0625,-0.09375,-12.875,-25.3125,-257.625
1696292204327,0.16601562,-0.10839844,-0.9814453,0.03125,0.0,-0.03125,0.0,0.0,0.0
1696292204330,0.17675781,-0.111328125,-0.98535156,0.09375,0.125,-0.03125,0.0,0.0,0.0
1696292204388,0.16601562,-0.11328125,-0.9765625,0.03125,-0.09375,-0.03125,0.0,0.0,0.0
1696292204420,0.171875,-0.107421875,-0.9921875,0.03125,0.0,0.03125,0.0,0.0,0.0
1696292204449,0.17089844,-0.11230469,-0.9902344,0.09375,0.125,0.03125,0.0,0.0,0.0
1696292204508,0.15917969,-0.10839844,-0.9814453,0.03125,-0.0625,0.03125,0.0,0.0,0.0
1696292204543,0.16601562,-0.099609375,-0.98535156,0.03125,-0.09375,-0.03125,0.0,0.0,0.0
1696292204568,0.16601562,-0.11621094,-0.9765625,-0.03125,0.0,0.03125,0.0,0.0,0.0
1696292204631,0.17382812,-0.115234375,-0.98339844,0.03125,0.25,0.03125,0.0,0.0,0.0
1696292204660,0.17285156,-0.10644531,-0.99121094,0.09375,0.25,-0.09375,0.0,0.0,0.0
1696292204688,0.16699219,-0.10546875,-0.9863281,0.09375,0.0,-0.03125,0.0,0.0,0.0
1696292204750,0.16992188,-0.11230469,-0.9892578,0.09375,0.0,0.03125,0.0,0.0,0.0
1696292204779,0.17089844,-0.10644531,-0.9765625,0.0,0.21875,-0.03125,-11.25,-24.125,-257.75
1696292204809,0.17480469,-0.109375,-0.9794922,-0.0625,0.09375,-0.15625,0.0,0.0,0.0
1696292204874,0.17871094,-0.11035156,-0.984375,0.0625,0.21875,-0.03125,0.0,0.0,0.0
1696292204901,0.17675781,-0.11425781,-0.9785156,0.1875,-0.03125,0.03125,0.0,0.0,0.0
1696292204928,0.16796875,-0.11035156,-0.9921875,0.0625,-0.03125,0.03125,0.0,0.0,0.0
1696292204989,0.16796875,-0.11230469,-0.9765625,0.0625,0.21875,-0.03125,0.0,0.0,0.0
1696292205018,0.17675781,-0.11328125,-0.9873047,0.125,0.28125,0.03125,0.0,0.0,0.0
1696292205048,0.16503906,-0.11328125,-0.99121094,0.0,-0.03125,0.03125,0.0,0.0,0.0
1696292205109,0.16699219,-0.11035156,-0.9941406,0.1875,0.21875,-0.03125,0.0,0.0,0.0
1696292205138,0.1640625,-0.11621094,-0.98535156,0.0625,0.15625,-0.09375,0.0,0.0,0.0
1696292205174,0.17089844,-0.119140625,-0.9951172,0.1875,0.09375,0.03125,0.0,0.0,0.0
1696292205230,0.16796875,-0.10644531,-0.9970703,0.0625,0.09375,-0.09375,0.0,0.0,0.0
1696292205260,0.17089844,-0.115234375,-0.96972656,0.0625,0.34375,-0.03125,-9.625,-25.0,-258.375
1696292205295,0.16894531,-0.10449219,-0.984375,0.125,0.34375,-0.15625,0.0,0.0,0.0
1696292205353,0.16308594,-0.10839844,-0.9824219,0.125,0.09375,-0.09375,0.0,0.0,0.0
1696292205384,0.17480469,-0.11425781,-0.9794922,-0.125,0.03125,-0.15625,0.0,0.0,0.0
1696292205408,0.17089844,-0.11425781,-0.97558594,0.0625,0.09375,-0.03125,0.0,0.0,0.0
1696292205472,0.17382812,-0.10839844,-0.98046875,0.1875,0.28125,-0.09375,0.0,0.0,0.0
1696292205499,0.17480469,-0.11816406,-1.0029297,0.125,0.34375,0.03125,0.0,0.0,0.0
1696292205528,0.1640625,-0.11035156,-0.98828125,0.125,0.15625,-0.09375,0.0,0.0,0.0
1696292205591,0.16796875,-0.10839844,-0.99316406,0.25,0.03125,-0.03125,0.0,0.0,0.0
1696292205625,0.17578125,-0.11230469,-0.9814453,0.125,0.28125,0.03125,0.0,0.0,0.0
1696292205648,0.16992188,-0.11621094,-0.98828125,0.0625,0.09375,0.09375,0.0,0.0,0.0
1696292205709,0.17480469,-0.10546875,-0.98828125,0.0,-0.03125,0.03125,0.0,0.0,0.0
1696292205743,0.17285156,-0.111328125,-0.9941406,0.125,0.21875,-0.21875,0.0,0.0,0.0
1696292205767,0.17578125,-0.111328125,-0.9814453,0.1875,0.15625,0.03125,-10.8125,-25.4375,-257.4375
1696292205863,0.17480469,-0.10253906,-0.9892578,0.1875,0.21875,-0.09375,0.0,0.0,0.0
1696292205866,0.17871094,-0.10253906,-0.99902344,0.0,0.03125,0.09375,0.0,0.0,0.0
1696292205890,0.16992188,-0.11621094,-0.97753906,0.0625,0.15625,-0.15625,0.0,0.0,0.0
1696292205951,0.17480469,-0.115234375,-0.9824219,0.0625,0.15625,-0.09375,0.0,0.0,0.0
1696292205981,0.17480469,-0.10644531,-0.98046875,0.125,0.03125,-0.03125,0.0,0.0,0.0
1696292206008,0.17480469,-0.11035156,-0.9716797,-0.0625,-0.03125,-0.09375,0.0,0.0,0.0
1696292206068,0.16894531,-0.10839844,-0.99609375,0.0625,0.09375,-0.09375,0.0,0.0,0.0
1696292206103,0.16894531,-0.109375,-0.98046875,0.125,0.46875,-0.03125,0.0,0.0,0.0
1696292206128,0.17871094,-0.111328125,-0.9824219,0.0,0.28125,-0.03125,0.0,0.0,0.0
1696292206189,0.16699219,-0.10644531,-0.9794922,0.0,-0.03125,0.09375,0.0,0.0,0.0
1696292206221,0.17773438,-0.107421875,-1.0,-0.0625,-0.09375,0.03125,0.0,0.0,0.0
1696292206247,0.17578125,-0.107421875,-0.96972656,0.0,0.03125,-0.09375,-11.375,-25.3125,-258.375
1696292206312,0.17675781,-0.115234375,-0.9736328,0.0,0.03125,-0.03125,0.0,0.0,0.0
1696292206338,0.16992188,-0.115234375,-0.9902344,0.0,-0.1875,0.09375,0.0,0.0,0.0
1696292206367,0.17089844,-0.119140625,-0.9863281,0.0,-0.03125,-0.03125,0.0,0.0,0.0
1696292206430,0.171875,-0.11621094,-0.98828125,-0.0625,0.15625,0.03125,0.0,0.0,0.0
1696292206461,0.18261719,-0.11425781,-0.9921875,0.0,-0.15625,-0.03125,0.0,0.0,0.0
1696292206488,0.17285156,-0.1015625,-0.984375,0.0,-0.15625,-0.03125,0.0,0.0,0.0
1696292206551,0.16796875,-0.11035156,-0.9921875,0.0,-0.03125,-0.09375,0.0,0.0,0.0
1696292206608,0.17285156,-0.111328125,-0.9765625,0.0,-0.09375,0.03125,0.0,0.0,0.0
1696292206610,0.17089844,-0.10546875,-0.98339844,0.0625,0.09375,-0.03125,0.0,0.0,0.0
1696292206671,0.17675781,-0.11621094,-1.0009766,0.0,-0.03125,0.03125,0.0,0.0,0.0
1696292206699,0.17578125,-0.11328125,-0.9814453,-0.0625,-0.15625,-0.09375,0.0,0.0,0.0
1696292206729,0.16699219,-0.11035156,-0.9951172,-0.125,0.28125,-0.03125,0.0,0.0,0.0
1696292206792,0.1796875,-0.11816406,-1.0,-0.0625,0.03125,-0.09375,-12.125,-24.5625,-257.875
1696292206826,0.17089844,-0.109375,-0.99121094,0.0,-0.1875,0.03125,0.0,0.0,0.0
1696292206848,0.18261719,-0.11425781,-0.9951172,-0.0625,-0.25,0.03125,0.0,0.0,0.0
1696292206911,0.16992188,-0.10546875,-0.9970703,0.0,-0.03125,-0.03125,0.0,0.0,0.0
1696292206939,0.16796875,-0.10839844,-0.984375,0.0625,0.21875,0.09375,0.0,0.0,0.0
1696292206970,0.16699219,-0.10839844,-0.9736328,0.0,-0.03125,-0.09375,0.0,0.0,0.0
1696292207030,0.16796875,-0.11621094,-0.9921875,0.0,-0.15625,-0.03125,0.0,0.0,0.0
1696292207061,0.17578125,-0.109375,-0.9863281,-0.0625,-0.03125,-0.03125,0.0,0.0,0.0
1696292207087,0.17480469,-0.11035156,-0.9970703,-0.0625,-0.1875,0.03125,0.0,0.0,0.0
1696292207149,0.1640625,-0.11035156,-0.9863281,-0.0625,-0.1875,-0.03125,0.0,0.0,0.0
1696292207182,0.16796875,-0.111328125,-0.9921875,-0.0625,-0.15625,-0.09375,0.0,0.0,0.0
1696292207208,0.17675781,-0.109375,-0.9765625,-0.0625,-0.15625,-0.09375,0.0,0.0,0.0
1696292207268,0.16699219,-0.115234375,-0.9941406,-0.0625,-0.09375,0.03125,-12.125,-24.25,-257.3125
1696292207300,0.17773438,-0.10546875,-0.98046875,-0.0625,-0.15625,0.09375,0.0,0.0,0.0
1696292207328,0.17578125,-0.10253906,-0.9824219,0.0,-0.09375,-0.03125,0.0,0.0,0.0
1696292207389,0.17675781,-0.111328125,-0.99609375,0.0625,0.03125,0.03125,0.0,0.0,0.0
1696292207423,0.16992188,-0.109375,-0.9785156,0.1875,0.28125,-0.03125,0.0,0.0,0.0
1696292207449,0.16992188,-0.10839844,-0.97265625,-0.0625,0.03125,0.03125,0.0,0.0,0.0
1696292207512,0.17285156,-0.111328125,-0.9863281,0.0,-0.1875,0.03125,0.0,0.0,0.0
1696292207540,0.16992188,-0.115234375,-0.97558594,0.0,-0.03125,0.09375,0.0,0.0,0.0
1696292207567,0.17285156,-0.115234375,-0.9863281,0.0625,0.15625,-0.09375,0.0,0.0,0.0
1696292207633,0.17382812,-0.11425781,-0.9863281,0.0,-0.15625,0.09375,0.0,0.0,0.0
1696292207659,0.17382812,-0.111328125,-0.984375,0.0625,-0.1875,0.03125,0.0,0.0,0.0
1696292207688,0.16894531,-0.10839844,-0.9794922,0.0,-0.1875,0.09375,0.0,0.0,0.0
1696292207749,0.17285156,-0.109375,-0.96875,0.25,-0.03125,-0.03125,0.0,0.0,0.0
1696292207779,0.16796875,-0.103515625,-0.9824219,0.125,0.09375,0.03125,-11.5625,-23.6875,-257.75
1696292207811,0.16601562,-0.109375,-0.984375,-0.0625,-0.15625,0.03125,0.0,0.0,0.0
1696292207839,0.17578125,-0.10839844,-0.96777344,-0.1875,-0.1875,-0.03125,0.0,0.0,0.0
1696292207901,0.16699219,-0.103515625,-0.9863281,0.0,0.03125,-0.03125,0.0,0.0,0.0
1696292207933,0.17675781,-0.10644531,-0.9785156,0.125,-0.03125,0.09375,0.0,0.0,0.0
1696292207959,0.16796875,-0.1015625,-0.9765625,0.0,-0.15625,0.03125,0.0,0.0,0.0
1696292208021,0.16796875,-0.109375,-0.9863281,0.0,0.03125,-0.03125,0.0,0.0,0.0
1696292208052,0.17871094,-0.107421875,-0.9892578,0.0625,0.28125,0.03125,0.0,0.0,0.0
1696292208080,0.171875,-0.11035156,-0.9824219,-0.0625,-0.03125,-0.03125,0.0,0.0,0.0
1696292208142,0.16210938,-0.111328125,-0.98046875,0.0,-0.03125,-0.09375,0.0,0.0,0.0
1696292208169,0.16992188,-0.11035156,-0.98828125,0.0,-0.09375,0.03125,0.0,0.0,0.0
1696292208201,0.16992188,-0.11230469,-0.97753906,0.0625,0.09375,0.09375,0.0,0.0,0.0
1696292208259,0.17285156,-0.11425781,-0.9746094,0.0625,-0.09375,0.03125,-11.125,-23.8125,-256.25
1696292208289,0.16503906,-0.119140625,-0.9785156,0.125,-0.25,-0.03125,0.0,0.0,0.0
1696292208319,0.16796875,-0.111328125,-0.96875,0.125,0.03125,0.03125,0.0,0.0,0.0
1696292208383,0.17578125,-0.109375,-1.0019531,0.1875,0.09375,-0.09375,0.0,0.0,0.0
1696292208409,0.17480469,-0.111328125,-0.9746094,0.125,-0.09375,0.09375,0.0,0.0,0.0
1696292208441,0.16992188,-0.111328125,-0.9814453,0.0,-0.15625,0.03125,0.0,0.0,0.0
1696292208499,0.17089844,-0.111328125,-0.97558594,0.0,-0.09375,0.03125,0.0,0.0,0.0
1696292208530,0.17675781,-0.111328125,-0.98828125,0.1875,0.15625,-0.03125,0.0,0.0,0.0
1696292208560,0.16699219,-0.10644531,-0.98535156,0.1875,0.03125,0.09375,0.0,0.0,0.0
1696292208623,0.16796875,-0.10839844,-0.9824219,0.1875,-0.09375,0.03125,0.0,0.0,0.0
1696292208648,0.16699219,-0.109375,-0.9951172,0.1875,0.09375,-0.03125,0.0,0.0,0.0
1696292208682,0.17285156,-0.11230469,-0.9765625,0.1875,0.34375,0.03125,0.0,0.0,0.0
1696292208745,0.16894531,-0.10839844,-0.9716797,0.125,0.15625,0.03125,0.0,0.0,0.0
1696292208767,0.16699219,-0.109375,-0.9794922,0.25,0.28125,0.03125,-12.0,-25.1875,-257.0
1696292208800,0.16210938,-0.10839844,-0.984375,0.25,0.28125,0.03125,0.0,0.0,0.0
1696292208889,0.16992188,-0.10839844,-0.98828125,0.125,0.28125,-0.03125,0.0,0.0,0.0
1696292208893,0.15722656,-0.1171875,-0.98339844,0.1875,0.28125,0.03125,0.0,0.0,0.0
1696292208927,0.17285156,-0.10839844,-0.9814453,0.0,0.03125,-0.03125,0.0,0.0,0.0
1696292208985,0.17773438,-0.12207031,-0.9824219,0.0,0.09375,-0.09375,0.0,0.0,0.0
1696292209008,0.16699219,-0.11230469,-0.99121094,0.0625,0.09375,0.09375,0.0,0.0,0.0
1696292209045,0.16503906,-0.10546875,-0.9902344,0.0,0.15625,-0.03125,0.0,0.0,0.0
1696292209101,0.17480469,-0.111328125,-0.9941406,-0.0625,0.03125,-0.03125,0.0,0.0,0.0
1696292209129,0.17382812,-0.11621094,-0.9873047,0.0625,0.15625,-0.15625,0.0,0.0,0.0
1696292209159,0.16601562,-0.10253906,-0.9824219,0.25,0.28125,-0.03125,0.0,0.0,0.0
1696292209219,0.16503906,-0.103515625,-0.9658203,0.25,0.03125,-0.03125,0.0,0.0,0.0
1696292209248,0.17675781,-0.11035156,-0.98828125,-0.0625,0.03125,0.03125,-11.375,-26.0625,-257.625
1696292209279,0.17285156,-0.11230469,-0.98535156,-0.1875,0.03125,-0.03125,0.0,0.0,0.0
1696292209337,0.1640625,-0.109375,-0.9736328,0.0625,0.59375,-0.09375,0.0,0.0,0.0
1696292209370,0.17089844,-0.12109375,-0.9941406,0.0625,0.46875,-0.03125,0.0,0.0,0.0
1696292209401,0.16992188,-0.109375,-0.9892578,0.0625,0.21875,-0.03125,0.0,0.0,0.0
1696292209459,0.17578125,-0.10839844,-1.0019531,0.125,-0.03125,-0.03125,0.0,0.0,0.0
1696292209488,0.16992188,-0.111328125,-0.9970703,0.1875,0.09375,-0.03125,0.0,0.0,0.0
1696292209519,0.17285156,-0.107421875,-0.9794922,0.1875,0.21875,-0.15625,0.0,0.0,0.0
1696292209579,0.16796875,-0.10058594,-0.9814453,0.125,0.09375,0.09375,0.0,0.0,0.0
1696292209608,0.17285156,-0.109375,-0.9941406,0.0625,0.09375,-0.03125,0.0,0.0,0.0
1696292209640,0.16699219,-0.10253906,-0.98046875,0.125,0.34375,-0.03125,0.0,0.0,0.0
1696292209698,0.17480469,-0.11035156,-0.9814453,0.1875,0.09375,-0.03125,0.0,0.0,0.0
1696292209729,0.17089844,-0.107421875,-0.98339844,0.125,0.21875,-0.03125,0.0,0.0,0.0
1696292209760,0.16210938,-0.115234375,-0.99316406,0.125,0.21875,-0.09375,-13.0625,-24.4375,-259.125
1696292209823,0.16894531,-0.109375,-0.9824219,0.1875,0.15625,0.03125,0.0,0.0,0.0
1696292209849,0.17480469,-0.11035156,-0.9824219,0.0625,0.21875,0.03125,0.0,0.0,0.0
1696292209884,0.17675781,-0.10839844,-0.99121094,0.0,-0.03125,0.03125,0.0,0.0,0.0
1696292209941,0.17578125,-0.11230469,-0.99121094,0.0625,0.15625,-0.09375,0.0,0.0,0.0
1696292209969,0.16308594,-0.11621094,-0.9863281,0.0625,0.09375,-0.09375,0.0,0.0,0.0
1696292209998,0.17089844,-0.11425781,-0.98828125,0.0,0.28125,-0.09375,0.0,0.0,0.0
1696292210063,0.16992188,-0.10449219,-0.97753906,0.125,0.28125,-0.15625,0.0,0.0,0.0
1696292210090,0.17089844,-0.11425781,-0.97265625,0.1875,0.21875,-0.03125,0.0,0.0,0.0
1696292210120,0.17382812,-0.11230469,-0.9814453,0.125,0.15625,-0.03125,0.0,0.0,0.0
1696292210185,0.16894531,-0.115234375,-0.9765625,0.0,0.09375,0.03125,0.0,0.0,0.0
1696292210209,0.16601562,-0.10644531,-0.9824219,0.0625,0.21875,0.03125,0.0,0.0,0.0
1696292210238,0.17773438,-0.10839844,-0.9892578,0.0,-0.09375,0.09375,-11.5625,-24.125,-258.8125
1696292210299,0.17480469,-0.103515625,-0.98828125,0.0625,0.09375,-0.09375,0.0,0.0,0.0
1696292210329,0.17480469,-0.11035156,-0.97265625,-0.0625,0.03125,0.09375,0.0,0.0,0.0
1696292210358,0.16992188,-0.11816406,-0.99902344,0.0625,-0.03125,0.03125,0.0,0.0,0.0
1696292210421,0.17578125,-0.11230469,-0.9765625,0.0625,-0.09375,-0.09375,0.0,0.0,0.0
1696292210450,0.15820312,-0.103515625,-0.9902344,0.0625,0.03125,-0.03125,0.0,0.0,0.0
1696292210486,0.17285156,-0.107421875,-0.96972656,0.0,0.03125,0.09375,0.0,0.0,0.0
1696292210540,0.16992188,-0.11230469,-0.99609375,0.0625,0.09375,-0.03125,0.0,0.0,0.0
1696292210602,0.17382812,-0.11035156,-0.9765625,0.0,-0.09375,-0.03125,0.0,0.0,0.0
1696292210606,0.16992188,-0.109375,-0.984375,0.0,0.03125,0.03125,0.0,0.0,0.0
1696292210659,0.17285156,-0.109375,-0.97753906,0.0,0.34375,0.03125,0.0,0.0,0.0
1696292210688,0.16699219,-0.107421875,-0.984375,0.0625,0.21875,-0.03125,0.0,0.0,0.0
1696292210722,0.16796875,-0.11425781,-0.98828125,0.125,0.09375,0.03125,0.0,0.0,0.0
1696292210780,0.16992188,-0.109375,-0.9814453,-0.0625,-0.1875,0.03125,-10.625,-23.1875,-257.3125
1696292210810,0.17871094,-0.1171875,-0.9794922,0.0625,0.21875,-0.09375,0.0,0.0,0.0
1696292210840,0.16992188,-0.10839844,-0.9951172,0.0,-0.15625,0.03125,0.0,0.0,0.0
1696292210901,0.17285156,-0.10839844,-0.98535156,0.125,-0.03125,0.03125,0.0,0.0,0.0
1696292210928,0.17480469,-0.11425781,-0.9892578,-0.0625,-0.03125,-0.09375,0.0,0.0,0.0
1696292210959,0.17089844,-0.10839844,-0.97753906,-0.0625,-0.09375,-0.03125,0.0,0.0,0.0
1696292211023,0.17089844,-0.12597656,-0.98535156,0.0,0.03125,-0.03125,0.0,0.0,0.0
1696292211047,0.17285156,-0.10839844,-0.98339844,0.0,-0.09375,0.03125,0.0,0.0,0.0
1696292211079,0.16601562,-0.109375,-0.9902344,0.0,-0.09375,-0.03125,0.0,0.0,0.0
1696292211169,0.16699219,-0.111328125,-0.98535156,-0.1875,0.03125,0.03125,0.0,0.0,0.0
1696292211171,0.17382812,-0.11621094,-0.98339844,-0.125,-0.09375,0.09375,0.0,0.0,0.0
1696292211202,0.16796875,-0.10644531,-0.9892578,0.0,-0.09375,-0.03125,0.0,0.0,0.0
1696292211260,0.16894531,-0.11035156,-0.9814453,-0.15625,-0.25,0.03125,-11.6875,-25.3125,-256.5625
1696292211290,0.17285156,-0.12109375,-0.9941406,-0.03125,-0.1875,-0.03125,0.0,0.0,0.0
1696292211319,0.171875,-0.107421875,-0.9794922,0.09375,0.28125,0.09375,0.0,0.0,0.0
1696292211382,0.17480469,-0.10546875,-0.98339844,0.03125,0.15625,-0.03125,0.0,0.0,0.0
1696292211410,0.16796875,-0.12207031,-0.9921875,0.15625,-0.25,-0.09375,0.0,0.0,0.0
1696292211441,0.16992188,-0.099609375,-0.9863281,0.09375,0.09375,-0.03125,0.0,0.0,0.0
1696292211500,0.16796875,-0.11230469,-0.99902344,-0.09375,-0.03125,0.03125,0.0,0.0,0.0
1696292211527,0.17089844,-0.115234375,-0.9794922,-0.09375,-0.03125,0.03125,0.0,0.0,0.0
1696292211558,0.16699219,-0.11035156,-0.97265625,-0.09375,-0.25,0.09375,0.0,0.0,0.0
1696292211622,0.17382812,-0.11425781,-0.98828125,-0.09375,-0.125,-0.03125,0.0,0.0,0.0
1696292211650,0.16992188,-0.109375,-0.9863281,0.03125,0.15625,-0.03125,0.0,0.0,0.0
1696292211685,0.17089844,-0.107421875,-0.98339844,0.09375,0.03125,0.09375,0.0,0.0,0.0
1696292211742,0.16503906,-0.107421875,-0.9970703,-0.03125,-0.03125,-0.03125,0.0,0.0,0.0
1696292211769,0.16894531,-0.10644531,-0.9873047,-0.09375,-0.1875,0.03125,-11.5625,-24.6875,-257.75
1696292211800,0.18164062,-0.10839844,-0.99609375,-0.03125,0.03125,-0.09375,0.0,0.0,0.0
1696292211860,0.16601562,-0.11230469,-0.9814453,-0.03125,-0.03125,-0.09375,0.0,0.0,0.0
1696292211890,0.1796875,-0.107421875,-0.9863281,-0.03125,-0.1875,0.09375,0.0,0.0,0.0
1696292211920,0.16992188,-0.11035156,-0.9921875,-0.09375,-0.1875,0.03125,0.0,0.0,0.0
1696292211984,0.17382812,-0.115234375,-0.96875,-0.03125,-0.09375,-0.09375,0.0,0.0,0.0
1696292212008,0.16601562,-0.11425781,-0.98828125,0.03125,0.09375,-0.03125,0.0,0.0,0.0
1696292212038,0.16992188,-0.11035156,-0.98339844,-0.09375,-0.125,0.09375,0.0,0.0,0.0
1696292212098,0.16992188,-0.10839844,-1.0,0.03125,-0.09375,0.09375,0.0,0.0,0.0
1696292212130,0.16601562,-0.10839844,-0.9970703,-0.03125,-0.09375,0.03125,0.0,0.0,0.0
1696292212160,0.16992188,-0.1015625,-0.9814453,-0.03125,-0.125,0.03125,0.0,0.0,0.0
1696292212220,0.16894531,-0.115234375,-0.9794922,-0.15625,-0.03125,0.03125,0.0,0.0,0.0
1696292212253,0.16503906,-0.11035156,-0.9941406,-0.09375,-0.125,0.09375,-10.8125,-23.6875,-257.0
1696292212279,0.16601562,-0.115234375,-0.9980469,-0.03125,-0.125,-0.03125,0.0,0.0,0.0
1696292212341,0.17089844,-0.11035156,-0.98828125,-0.03125,-0.03125,-0.03125,0.0,0.0,0.0
1696292212370,0.171875,-0.115234375,-0.9873047,-0.03125,-0.125,-0.03125,0.0,0.0,0.0
1696292212402,0.16992188,-0.115234375,-0.9863281,-0.03125,-0.1875,-0.03125,0.0,0.0,0.0
1696292212463,0.17285156,-0.109375,-0.9873047,-0.15625,-0.03125,-0.03125,0.0,0.0,0.0
1696292212488,0.15820312,-0.10644531,-0.9902344,-0.03125,-0.1875,0.03125,0.0,0.0,0.0
1696292212518,0.17285156,-0.107421875,-0.9902344,-0.03125,-0.25,0.03125,0.0,0.0,0.0
1696292212581,0.16699219,-0.11230469,-0.9873047,0.03125,-0.125,-0.03125,0.0,0.0,0.0
1696292212609,0.16015625,-0.10644531,-0.9814453,0.03125,0.03125,-0.09375,0.0,0.0,0.0
1696292212641,0.17382812,-0.10839844,-0.9892578,0.09375,0.15625,-0.03125,0.0,0.0,0.0
1696292212699,0.17285156,-0.107421875,-1.0019531,-0.03125,-0.125,-0.03125,0.0,0.0,0.0
1696292212727,0.16015625,-0.11621094,-0.9902344,-0.03125,-0.03125,0.09375,0.0,0.0,0.0
1696292212761,0.16894531,-0.111328125,-0.98046875,-0.03125,-0.09375,0.03125,-11.125,-26.0625,-257.625
1696292212822,0.16308594,-0.11230469,-0.9941406,0.03125,-0.03125,-0.03125,0.0,0.0,0.0
1696292212851,0.1640625,-0.11425781,-0.9921875,-0.03125,-0.09375,-0.03125,0.0,0.0,0.0
1696292212878,0.17089844,-0.10253906,-0.9814453,0.09375,0.03125,0.15625,0.0,0.0,0.0
1696292212939,0.16992188,-0.11035156,-0.9794922,-0.03125,-0.1875,0.09375,0.0,0.0,0.0
1696292212967,0.171875,-0.11425781,-0.97558594,0.21875,0.03125,0.03125,0.0,0.0,0.0
1696292212998,0.17480469,-0.11230469,-0.97753906,0.15625,-0.09375,-0.03125,0.0,0.0,0.0
1696292213061,0.17089844,-0.1015625,-0.9951172,0.03125,-0.09375,0.09375,0.0,0.0,0.0
1696292213088,0.16113281,-0.111328125,-0.98046875,0.03125,0.03125,0.03125,0.0,0.0,0.0
1696292213122,0.16308594,-0.10546875,-0.99316406,0.03125,0.28125,0.09375,0.0,0.0,0.0
1696292213180,0.17871094,-0.111328125,-0.9824219,0.21875,0.03125,-0.03125,0.0,0.0,0.0
1696292213212,0.17871094,-0.11425781,-0.9951172,0.15625,0.28125,0.09375,0.0,0.0,0.0
1696292213238,0.171875,-0.111328125,-0.9941406,0.09375,0.28125,-0.03125,-11.125,-24.5625,-258.375
1696292213301,0.17578125,-0.11230469,-0.9921875,0.21875,0.40625,-0.03125,0.0,0.0,0.0
1696292213333,0.17089844,-0.103515625,-0.984375,-0.03125,-0.03125,-0.15625,0.0,0.0,0.0
1696292213362,0.17285156,-0.109375,-0.97753906,0.28125,0.09375,0.03125,0.0,0.0,0.0
1696292213449,0.16699219,-0.12011719,-0.9921875,0.28125,0.09375,0.15625,0.0,0.0,0.0
1696292213451,0.16796875,-0.107421875,-0.98046875,0.03125,0.21875,-0.03125,0.0,0.0,0.0
1696292213479,0.16113281,-0.115234375,-0.99609375,-0.21875,-0.03125,-0.03125,0.0,0.0,0.0
1696292213540,0.16992188,-0.109375,-0.9814453,0.03125,0.09375,-0.03125,0.0,0.0,0.0
1696292213570,0.171875,-0.109375,-0.9873047,0.28125,0.21875,0.03125,0.0,0.0,0.0
1696292213602,0.16992188,-0.111328125,-0.9765625,0.21875,0.34375,-0.09375,0.0,0.0,0.0
1696292213662,0.16113281,-0.107421875,-0.98339844,0.15625,0.21875,0.03125,0.0,0.0,0.0
1696292213687,0.171875,-0.109375,-0.97265625,0.03125,0.15625,-0.09375,0.0,0.0,0.0
1696292213720,0.16796875,-0.11035156,-0.9980469,0.09375,0.21875,-0.15625,0.0,0.0,0.0
1696292213783,0.17480469,-0.10449219,-0.9824219,0.09375,0.34375,-0.15625,-11.25,-24.4375,-258.5
1696292213814,0.16699219,-0.109375,-0.9765625,0.34375,0.28125,-0.03125,0.0,0.0,0.0
1696292213842,0.16894531,-0.11816406,-0.9794922,0.28125,0.15625,0.03125,0.0,0.0,0.0
1696292213900,0.17578125,-0.11230469,-0.9794922,0.09375,0.21875,-0.03125,0.0,0.0,0.0
1696292213930,0.16503906,-0.10839844,-0.9873047,0.03125,0.46875,-0.03125,0.0,0.0,0.0
1696292213962,0.16894531,-0.11328125,-0.9794922,0.03125,0.21875,0.09375,0.0,0.0,0.0
1696292214019,0.17773438,-0.10839844,-0.9941406,0.09375,0.15625,0.03125,0.0,0.0,0.0
1696292214047,0.17089844,-0.107421875,-0.98828125,0.03125,0.09375,-0.03125,0.0,0.0,0.0
1696292214078,0.16894531,-0.11621094,-0.9941406,0.09375,0.28125,0.03125,0.0,0.0,0.0
1696292214143,0.17675781,-0.12011719,-0.9785156,0.15625,0.03125,0.09375,0.0,0.0,0.0
1696292214174,0.16992188,-0.10253906,-1.0019531,0.03125,0.03125,-0.03125,0.0,0.0,0.0
1696292214201,0.17578125,-0.11035156,-0.9892578,-0.03125,-0.09375,-0.09375,0.0,0.0,0.0
1696292214261,0.17089844,-0.111328125,-0.98339844,0.15625,0.21875,-0.03125,-11.25,-24.4375,-258.5
1696292214288,0.17675781,-0.10839844,-0.9902344,0.09375,0.09375,-0.09375,0.0,0.0,0.0
1696292214318,0.16992188,-0.111328125,-0.96484375,0.03125,0.03125,-0.03125,0.0,0.0,0.0
1696292214380,0.16796875,-0.107421875,-0.9716797,-0.15625,-0.03125,-0.03125,0.0,0.0,0.0
1696292214408,0.16796875,-0.11621094,-0.9873047,-0.03125,-0.03125,-0.03125,0.0,0.0,0.0
1696292214439,0.16699219,-0.107421875,-0.9863281,0.03125,0.03125,0.03125,0.0,0.0,0.0
1696292214502,0.17675781,-0.115234375,-0.984375,-0.03125,-0.09375,-0.15625,0.0,0.0,0.0
1696292214534,0.17480469,-0.11621094,-0.9892578,-0.03125,-0.03125,-0.09375,0.0,0.0,0.0
1696292214559,0.17089844,-0.11621094,-0.99316406,-0.03125,0.09375,-0.09375,0.0,0.0,0.0
1696292214620,0.17871094,-0.111328125,-0.984375,0.03125,0.15625,-0.09375,0.0,0.0,0.0
1696292214649,0.18554688,-0.111328125,-0.9941406,0.03125,0.03125,-0.03125,0.0,0.0,0.0
1696292214685,0.17285156,-0.10839844,-0.9785156,-0.03125,-0.25,-0.09375,0.0,0.0,0.0
1696292214739,0.16601562,-0.111328125,-0.984375,-0.03125,-0.09375,0.03125,0.0,0.0,0.0
1696292214770,0.18164062,-0.11035156,-0.98339844,-0.03125,-0.03125,-0.03125,-11.5625,-24.6875,-258.0625
1696292214803,0.17773438,-0.107421875,-0.97753906,0.03125,-0.03125,-0.03125,0.0,0.0,0.0
1696292214859,0.16699219,-0.11230469,-0.9970703,0.09375,-0.1875,-0.09375,0.0,0.0,0.0
1696292214888,0.17675781,-0.11328125,-0.9941406,0.15625,0.03125,0.09375,0.0,0.0,0.0
1696292214919,0.17578125,-0.109375,-0.984375,0.15625,-0.03125,-0.03125,0.0,0.0,0.0
1696292214979,0.17089844,-0.10839844,-0.9824219,-0.03125,-0.09375,-0.03125,0.0,0.0,0.0
1696292215008,0.16601562,-0.109375,-0.9736328,-0.03125,-0.1875,-0.03125,0.0,0.0,0.0
1696292215039,0.17285156,-0.115234375,-0.9951172,-0.21875,-0.125,-0.09375,0.0,0.0,0.0
1696292215103,0.17871094,-0.107421875,-0.98535156,-0.03125,-0.09375,-0.03125,0.0,0.0,0.0
1696292215129,0.17285156,-0.10839844,-0.9873047,-0.03125,-0.125,0.09375,0.0,0.0,0.0
1696292215159,0.16894531,-0.103515625,-0.98339844,-0.0625,-0.125,0.03125,0.0,0.0,0.0
1696292215222,0.16503906,-0.115234375,-0.99316406,-0.0625,-0.25,0.03125,0.0,0.0,0.0
1696292215247,0.1796875,-0.111328125,-0.98046875,-0.0625,0.125,-0.03125,-12.0,-24.125,-258.8125
1696292215280,0.16503906,-0.12109375,-0.9824219,-0.375,-0.28125,-0.03125,0.0,0.0,0.0
1696292215339,0.18359375,-0.10644531,-0.9921875,-0.1875,-0.28125,-0.09375,0.0,0.0,0.0
1696292215371,0.16113281,-0.11425781,-0.98046875,-0.25,-0.1875,0.03125,0.0,0.0,0.0
1696292215397,0.16796875,-0.111328125,-0.9902344,0.0,0.0,-0.03125,0.0,0.0,0.0
1696292215461,0.16503906,-0.11816406,-0.9951172,0.0625,-0.0625,-0.09375,0.0,0.0,0.0
1696292215490,0.16601562,-0.107421875,-0.99121094,-0.0625,-0.28125,0.03125,0.0,0.0,0.0
1696292215520,0.16796875,-0.107421875,-0.99121094,-0.125,-0.1875,-0.09375,0.0,0.0,0.0
1696292215582,0.171875,-0.11035156,-0.97753906,-0.1875,-0.25,-0.03125,0.0,0.0,0.0
1696292215607,0.17285156,-0.11230469,-0.98828125,-0.125,-0.0625,-0.09375,0.0,0.0,0.0
1696292215640,0.16308594,-0.10839844,-0.99316406,-0.0625,-0.28125,0.09375,0.0,0.0,0.0
1696292215732,0.16894531,-0.11230469,-0.9824219,-0.0625,-0.125,0.09375,0.0,0.0,0.0
1696292215734,0.17480469,-0.107421875,-0.98339844,-0.125,0.0,-0.09375,0.0,0.0,0.0
1696292215761,0.17578125,-0.11035156,-0.9921875,-0.125,-0.0625,-0.03125,-12.125,-23.1875,-257.3125
1696292215822,0.1796875,-0.11425781,-0.9716797,-0.125,-0.34375,-0.09375,0.0,0.0,0.0
1696292215847,0.16015625,-0.11621094,-0.9902344,-0.125,-0.28125,0.09375,0.0,0.0,0.0
1696292215879,0.16894531,-0.111328125,-0.9863281,-0.25,0.125,-0.03125,0.0,0.0,0.0
1696292215943,0.17773438,-0.103515625,-1.0,0.0,0.0625,-0.03125,0.0,0.0,0.0
1696292215970,0.16699219,-0.11230469,-0.9873047,-0.0625,-0.28125,0.03125,0.0,0.0,0.0
1696292216000,0.17675781,-0.11425781,-0.9970703,-0.0625,-0.1875,0.03125,0.0,0.0,0.0
1696292216059,0.17285156,-0.10839844,-0.98046875,0.0,-0.1875,0.09375,0.0,0.0,0.0
1696292216089,0.17480469,-0.10644531,-0.98339844,-0.0625,-0.125,-0.03125,0.0,0.0,0.0
1696292216121,0.16992188,-0.11425781,-0.9785156,-0.0625,-0.25,0.03125,0.0,0.0,0.0
1696292216179,0.17675781,-0.10644531,-0.9716797,-0.0625,-0.25,-0.03125,0.0,0.0,0.0
1696292216209,0.16308594,-0.115234375,-1.0009766,-0.125,-0.125,-0.03125,0.0,0.0,0.0
1696292216243,0.16992188,-0.119140625,-0.9951172,0.0,0.0625,-0.03125,-12.3125,-24.4375,-256.125
1696292216315,0.1640625,-0.11230469,-0.9921875,-0.0625,-0.0625,-0.03125,0.0,0.0,0.0
1696292216329,0.16308594,-0.111328125,-0.99121094,-0.0625,-0.25,0.03125,0.0,0.0,0.0
1696292216360,0.16699219,-0.109375,-0.9716797,-0.0625,-0.0625,-0.09375,0.0,0.0,0.0
1696292216423,0.16503906,-0.1171875,-0.9794922,-0.125,-0.125,-0.09375,0.0,0.0,0.0
1696292216450,0.16796875,-0.103515625,-0.984375,0.0,-0.1875,-0.09375,0.0,0.0,0.0
1696292216479,0.16113281,-0.11230469,-0.9873047,-0.0625,-0.1875,-0.03125,0.0,0.0,0.0
1696292216541,0.17089844,-0.10449219,-0.9794922,-0.0625,0.0625,-0.09375,0.0,0.0,0.0
1696292216570,0.17382812,-0.10839844,-0.9814453,0.0,0.0,0.03125,0.0,0.0,0.0
1696292216603,0.17480469,-0.111328125,-0.984375,-0.0625,-0.1875,0.03125,0.0,0.0,0.0
1696292216659,0.17382812,-0.109375,-1.0,0.0625,0.0,0.09375,0.0,0.0,0.0
1696292216688,0.16015625,-0.11035156,-0.9824219,0.0,-0.0625,0.03125,0.0,0.0,0.0
1696292216718,0.16503906,-0.111328125,-0.9746094,0.0625,0.0625,-0.03125,0.0,0.0,0.0
1696292216779,0.171875,-0.1171875,-0.9951172,0.0,-0.25,0.03125,-11.6875,-24.5625,-256.5625
1696292216809,0.16601562,-0.1015625,-0.98046875,-0.0625,-0.125,-0.03125,0.0,0.0,0.0
1696292216843,0.16796875,-0.1171875,-0.9814453,-0.0625,-0.0625,-0.03125,0.0,0.0,0.0
1696292216868,0.16699219,-0.11035156,-0.99316406,0.125,-0.0625,0.03125,0.0,0.0,0.0
1696292216931,0.15625,-0.1171875,-0.9794922,0.125,-0.1875,-0.03125,0.0,0.0,0.0
1696292216959,0.16699219,-0.11621094,-0.9638672,0.0,-0.125,0.03125,0.0,0.0,0.0
1696292216989,0.16894531,-0.107421875,-0.97753906,-0.0625,-0.0625,-0.09375,0.0,0.0,0.0
1696292217053,0.16796875,-0.10839844,-0.99121094,0.0625,0.0625,-0.03125,0.0,0.0,0.0
1696292217079,0.17480469,-0.11328125,-0.9863281,0.125,-0.0625,0.09375,0.0,0.0,0.0
1696292217107,0.1640625,-0.111328125,-0.99316406,0.0625,0.0625,-0.03125,0.0,0.0,0.0
1696292217168,0.17871094,-0.10546875,-0.9785156,0.0625,0.125,0.09375,0.0,0.0,0.0
1696292217199,0.1796875,-0.12011719,-0.98339844,0.0625,0.25,-0.03125,0.0,0.0,0.0
1696292217288,0.17382812,-0.109375,-0.99609375,0.0,0.0625,-0.09375,-11.375,-25.625,-256.25
1696292217290,0.17089844,-0.10546875,-0.9863281,0.0,0.0,0.03125,0.0,0.0,0.0
1696292217324,0.16894531,-0.115234375,-0.9970703,0.0625,0.0,0.03125,0.0,0.0,0.0
1696292217350,0.16992188,-0.119140625,-0.97753906,0.0,0.0625,-0.09375,0.0,0.0,0.0
1696292217408,0.16699219,-0.11328125,-0.9892578,0.0,0.1875,-0.03125,0.0,0.0,0.0
1696292217438,0.17382812,-0.10644531,-0.9863281,-0.0625,0.0625,-0.03125,0.0,0.0,0.0
1696292217468,0.17871094,-0.111328125,-0.9863281,0.125,0.1875,-0.03125,0.0,0.0,0.0
1696292217528,0.16894531,-0.107421875,-0.984375,0.25,0.1875,-0.03125,0.0,0.0,0.0
1696292217562,0.16894531,-0.11425781,-0.9892578,0.0,0.0,-0.03125,0.0,0.0,0.0
1696292217588,0.17285156,-0.10644531,-0.98046875,0.0625,0.0,-0.03125,0.0,0.0,0.0
1696292217649,0.16894531,-0.12011719,-0.9980469,-0.125,-0.0625,0.03125,0.0,0.0,0.0
1696292217679,0.17089844,-0.10839844,-0.9921875,0.125,0.1875,-0.09375,0.0,0.0,0.0
1696292217707,0.17675781,-0.107421875,-0.98339844,0.3125,0.0625,0.09375,0.0,0.0,0.0
1696292217766,0.17675781,-0.103515625,-0.9980469,0.0625,0.0625,-0.03125,-12.625,-24.6875,-258.5
1696292217799,0.171875,-0.11621094,-0.98535156,0.125,0.0625,0.09375,0.0,0.0,0.0
1696292217829,0.16699219,-0.111328125,-0.9863281,0.0,0.1875,-0.09375,0.0,0.0,0.0
1696292217888,0.16894531,-0.111328125,-0.98339844,-0.0625,0.1875,-0.09375,0.0,0.0,0.0
1696292217917,0.16796875,-0.115234375,-1.0,0.0625,0.125,0.03125,0.0,0.0,0.0
1696292217949,0.16992188,-0.11230469,-0.9746094,0.0625,0.0,-0.03125,0.0,0.0,0.0
1696292218009,0.16894531,-0.115234375,-1.0087891,0.0,0.0625,0.03125,0.0,0.0,0.0
1696292218039,0.17285156,-0.119140625,-0.99121094,0.0,0.3125,0.09375,0.0,0.0,0.0
1696292218067,0.16503906,-0.115234375,-0.98828125,0.0,-0.1875,-0.03125,0.0,0.0,0.0
1696292218128,0.17089844,-0.1171875,-0.98339844,0.125,0.0,-0.03125,0.0,0.0,0.0
1696292218157,0.17578125,-0.111328125,-0.984375,0.0,0.125,-0.03125,0.0,0.0,0.0
1696292218188,0.17382812,-0.11230469,-0.99121094,0.0625,0.125,0.03125,0.0,0.0,0.0
1696292218278,0.17089844,-0.11425781,-0.9746094,-0.0625,-0.125,-0.03125,-12.3125,-25.75,-257.4375
1696292218279,0.17089844,-0.11328125,-0.98535156,-0.1875,-0.0625,0.03125,0.0,0.0,0.0
1696292218307,0.17480469,-0.10644531,-0.98828125,-0.125,0.1875,-0.03125,0.0,0.0,0.0
1696292218371,0.16601562,-0.11816406,-0.9892578,-0.0625,-0.0625,0.03125,0.0,0.0,0.0
1696292218398,0.17285156,-0.103515625,-0.9765625,0.0625,-0.0625,0.03125,0.0,0.0,0.0
1696292218427,0.17578125,-0.12011719,-0.9814453,0.0,-0.125,-0.03125,0.0,0.0,0.0
1696292218488,0.1796875,-0.11035156,-0.984375,0.0,0.25,-0.09375,0.0,0.0,0.0
1696292218528,0.16699219,-0.11621094,-0.9814453,-0.0625,0.1875,-0.15625,0.0,0.0,0.0
1696292218547,0.17675781,-0.115234375,-0.98828125,-0.0625,-0.0625,0.03125,0.0,0.0,0.0
1696292218607,0.17285156,-0.11425781,-0.98339844,-0.0625,-0.1875,0.03125,0.0,0.0,0.0
1696292218638,0.17089844,-0.10546875,-0.99316406,-0.0625,-0.1875,-0.09375,0.0,0.0,0.0
1696292218668,0.16210938,-0.11230469,-0.9785156,0.0,0.0,0.03125,0.0,0.0,0.0
1696292218727,0.16894531,-0.111328125,-1.0048828,-0.0625,-0.1875,0.15625,0.0,0.0,0.0
1696292218761,0.1796875,-0.109375,-0.9814453,-0.0625,-0.1875,0.03125,-13.5,-23.5,-257.875
1696292218788,0.17578125,-0.109375,-0.97753906,-0.0625,-0.125,-0.09375,0.0,0.0,0.0
1696292218848,0.17089844,-0.11328125,-0.98046875,0.0,-0.28125,0.03125,0.0,0.0,0.0
1696292218878,0.18359375,-0.115234375,-0.98046875,0.0625,-0.34375,0.15625,0.0,0.0,0.0
1696292218906,0.16796875,-0.109375,-0.99121094,-0.0625,-0.40625,-0.03125,0.0,0.0,0.0
1696292218967,0.17480469,-0.11425781,-0.97265625,-0.125,-0.28125,-0.03125,0.0,0.0,0.0
1696292219000,0.17871094,-0.10546875,-0.9921875,-0.1875,-0.34375,-0.03125,0.0,0.0,0.0
1696292219027,0.171875,-0.115234375,-0.98339844,-0.125,-0.40625,-0.15625,0.0,0.0,0.0
1696292219089,0.16699219,-0.10839844,-0.9794922,-0.21875,-0.3125,0.03125,0.0,0.0,0.0
1696292219119,0.17285156,-0.11035156,-0.984375,-0.21875,0.0,0.03125,0.0,0.0,0.0
1696292219150,0.16699219,-0.11230469,-0.9941406,-0.15625,-0.125,0.03125,0.0,0.0,0.0
1696292219208,0.16992188,-0.11816406,-0.99902344,-0.15625,-0.3125,0.03125,0.0,0.0,0.0
1696292219238,0.17285156,-0.109375,-0.9892578,-0.15625,-0.5,-0.03125,0.0,0.0,0.0
1696292219268,0.17382812,-0.10644531,-0.99316406,-0.09375,-0.4375,0.03125,-10.8125,-24.125,-257.75
1696292219327,0.16796875,-0.11328125,-0.98046875,-0.09375,0.0,-0.03125,0.0,0.0,0.0
1696292219357,0.16992188,-0.10546875,-0.99316406,-0.15625,0.0,0.09375,0.0,0.0,0.0
1696292219388,0.17675781,-0.10839844,-0.984375,-0.09375,-0.125,-0.03125,0.0,0.0,0.0
1696292219448,0.16601562,-0.107421875,-0.98339844,-0.09375,-0.125,-0.03125,0.0,0.0,0.0
1696292219480,0.17089844,-0.11425781,-0.9873047,-0.03125,-0.0625,0.03125,0.0,0.0,0.0
1696292219507,0.16699219,-0.109375,-0.9824219,0.03125,0.0,0.09375,0.0,0.0,0.0
1696292219567,0.17675781,-0.111328125,-0.9814453,0.03125,-0.125,0.03125,0.0,0.0,0.0
1696292219598,0.16992188,-0.10253906,-0.97753906,-0.03125,-0.0625,-0.03125,0.0,0.0,0.0
1696292219628,0.17578125,-0.11230469,-0.9873047,-0.03125,-0.125,-0.03125,0.0,0.0,0.0
1696292219691,0.16894531,-0.111328125,-0.9814453,-0.09375,-0.0625,-0.03125,0.0,0.0,0.0
1696292219722,0.16894531,-0.10546875,-0.9892578,-0.09375,-0.0625,0.03125,0.0,0.0,0.0
1696292219750,0.16699219,-0.10644531,-0.9746094,-0.03125,0.0,0.03125,-12.4375,-25.0,-256.25
1696292219808,0.16601562,-0.111328125,-0.98828125,0.03125,0.375,-0.03125,0.0,0.0,0.0
1696292219839,0.17675781,-0.10839844,-0.97265625,-0.03125,-0.0625,-0.03125,0.0,0.0,0.0
1696292219872,0.1796875,-0.11035156,-0.9863281,0.03125,-0.125,-0.03125,0.0,0.0,0.0
1696292219929,0.16308594,-0.10644531,-0.9873047,-0.03125,0.0,0.03125,0.0,0.0,0.0
1696292219959,0.17382812,-0.10253906,-0.9814453,0.03125,0.0625,0.03125,0.0,0.0,0.0
1696292219987,0.17480469,-0.10839844,-0.98339844,0.09375,0.125,-0.03125,0.0,0.0,0.0
1696292220048,0.16796875,-0.11035156,-0.97753906,-0.03125,-0.25,0.03125,0.0,0.0,0.0
1696292220080,0.16503906,-0.11230469,-0.99609375,-0.03125,-0.0625,0.03125,0.0,0.0,0.0
1696292220109,0.16894531,-0.11230469,-0.9736328,0.15625,0.0625,-0.03125,0.0,0.0,0.0
1696292220171,0.17480469,-0.109375,-0.9873047,-0.03125,0.0,-0.09375,0.0,0.0,0.0
1696292220199,0.16113281,-0.107421875,-0.98828125,0.03125,-0.125,-0.09375,0.0,0.0,0.0
1696292220227,0.16894531,-0.109375,-0.9794922,-0.03125,-0.0625,-0.03125,0.0,0.0,0.0
1696292220288,0.16992188,-0.10644531,-0.9746094,0.09375,0.0625,0.09375,-12.125,-24.25,-257.3125
1696292220321,0.16796875,-0.10449219,-0.9765625,-0.03125,-0.0625,0.09375,0.0,0.0,0.0
1696292220346,0.17089844,-0.103515625,-0.99902344,-0.09375,-0.1875,0.09375,0.0,0.0,0.0
1696292220409,0.16796875,-0.107421875,-0.9863281,0.09375,0.0625,0.03125,0.0,0.0,0.0
1696292220446,0.16308594,-0.11230469,-0.9814453,0.03125,0.4375,-0.09375,0.0,0.0,0.0
1696292220467,0.16503906,-0.11035156,-0.9736328,0.03125,0.0625,-0.09375,0.0,0.0,0.0
1696292220529,0.15820312,-0.111328125,-0.9814453,-0.03125,-0.125,-0.03125,0.0,0.0,0.0
